"Time (s)","Linear Acceleration x (m/s^2)","Linear Acceleration y (m/s^2)","Linear Acceleration z (m/s^2)","Absolute acceleration (m/s^2)"
5.655635000E-3,2.213766128E-1,-2.661857754E-2,1.542595863E0,1.558627008E0
1.065563500E-2,1.818620265E-1,-8.607442677E-2,1.308953285E0,1.324326737E0
1.565563500E-2,9.611243010E-2,-1.207745969E-1,6.602725983E-1,6.780737471E-1
2.065563500E-2,9.553834796E-2,-4.285866767E-2,2.005577087E-2,1.066146110E-1
2.565563500E-2,7.773493230E-2,6.641533971E-2,-4.133176804E-1,4.257760232E-1
3.065563500E-2,-7.425606251E-3,1.398696303E-1,-6.410627365E-1,6.561860142E-1
3.565563500E-2,-4.906120896E-2,2.011361569E-1,-6.871967316E-1,7.177061402E-1
4.065563500E-2,-4.794093966E-2,2.526658773E-1,-6.865692139E-1,7.331545981E-1
4.565563500E-2,-2.609223127E-3,2.101707906E-1,-6.085453033E-1,6.438213692E-1
5.065563500E-2,5.270129442E-2,1.536636353E-1,-4.430370331E-1,4.718810781E-1
5.565563500E-2,1.032568067E-1,7.928946614E-2,-1.452226639E-1,1.950343808E-1
6.065563500E-2,1.047206670E-1,3.629937768E-3,2.765874863E-1,2.957705734E-1
6.565563500E-2,1.043518335E-1,-5.559551716E-2,6.414709091E-1,6.522768537E-1
7.065563500E-2,7.253046334E-2,-3.543418646E-2,7.925605774E-1,7.966608554E-1
7.565563500E-2,4.487064481E-2,2.712607384E-3,6.034889221E-1,6.051608151E-1
8.065563500E-2,3.872117400E-2,5.604767799E-2,1.385154724E-1,1.543606414E-1
8.565563500E-2,4.880440235E-2,1.266554594E-1,-3.377332687E-1,3.639879612E-1
9.065563500E-2,4.535964131E-2,1.767718941E-1,-6.903991699E-1,7.141126056E-1
9.565563500E-2,4.584111273E-2,1.968087852E-1,-8.027858734E-1,8.278286442E-1
1.006556350E-1,3.337293863E-2,1.844315678E-1,-6.073150635E-1,6.355787461E-1
1.056556350E-1,1.295937598E-2,1.359874457E-1,-2.393035889E-1,2.755480692E-1
1.106556350E-1,4.359814525E-2,6.777299941E-2,1.642227173E-1,1.829291628E-1
1.156556350E-1,2.562843263E-2,3.391166031E-2,4.096136093E-1,4.118132176E-1
1.206556350E-1,9.495671093E-2,-8.502408862E-3,4.693040848E-1,4.788897492E-1
1.256556350E-1,8.849279583E-2,-8.841156960E-4,3.350172043E-1,3.465087066E-1
1.306556350E-1,8.614556491E-2,2.759896219E-2,1.086883545E-1,1.414069287E-1
1.356556350E-1,7.415162027E-2,7.557536662E-2,-1.270313263E-1,1.653694551E-1
1.406556350E-1,1.745162904E-2,1.306149662E-1,-2.810792923E-1,3.104358183E-1
1.456556350E-1,2.405981719E-2,1.499739438E-1,-3.369731903E-1,3.696241194E-1
1.506556350E-1,1.127198339E-2,1.715165228E-1,-3.267030716E-1,3.691610383E-1
1.556556350E-1,5.631971359E-2,1.291349828E-1,-2.557201385E-1,2.919598315E-1
1.606556350E-1,2.812770009E-2,9.525190294E-2,-1.403808594E-1,1.719618510E-1
1.656556350E-1,3.247758746E-2,8.636252582E-2,1.988124847E-2,9.438508142E-2
1.706556350E-1,6.730537117E-2,1.505719125E-2,1.629800797E-1,1.769724226E-1
1.756556350E-1,3.424349427E-2,3.515656292E-2,2.144050598E-1,2.199502910E-1
1.806556350E-1,5.363179743E-2,6.129088998E-2,2.005023956E-1,2.164119995E-1
1.856556350E-1,2.736288309E-2,7.673977315E-2,7.429790497E-2,1.102628625E-1
1.906556350E-1,4.490743577E-2,1.061716974E-1,-8.557033539E-2,1.435666724E-1
1.956556350E-1,1.783981919E-2,1.425218731E-1,-2.145023346E-1,2.581511089E-1
2.006556350E-1,7.194235921E-3,1.322083026E-1,-3.032197952E-1,3.308670980E-1
2.056556350E-1,3.524880111E-2,1.145454645E-1,-2.667293549E-1,2.924169800E-1
2.106556350E-1,2.544553578E-2,1.081345379E-1,-1.460876465E-1,1.835269845E-1
2.156556350E-1,6.511281431E-2,6.786231697E-2,-1.543712616E-2,9.530623020E-2
2.206556350E-1,6.377802789E-2,3.931686282E-2,9.157562256E-2,1.183196822E-1
2.256556350E-1,5.621959269E-2,4.547061026E-2,1.351079941E-1,1.532396459E-1
2.306556350E-1,6.292940676E-2,4.019889235E-2,1.085224152E-1,1.317314532E-1
2.356556350E-1,3.004844487E-2,5.538928509E-2,2.505111694E-2,6.781180134E-2
2.406556350E-1,2.558983862E-2,9.541413188E-2,-7.618331909E-2,1.247501283E-1
2.456556350E-1,3.970727324E-2,1.094176024E-1,-1.601276398E-1,1.979639873E-1
2.506556350E-1,9.687379003E-3,1.407080889E-1,-1.890373230E-1,2.358552969E-1
2.556556350E-1,3.549307585E-2,1.418228894E-1,-1.691255569E-1,2.235552380E-1
2.606556350E-1,3.929719329E-2,1.081014425E-1,-1.227188110E-1,1.681966047E-1
2.656556350E-1,3.689663112E-2,9.178316593E-2,-4.678440094E-2,1.094271041E-1
2.706556350E-1,5.170443654E-2,7.042728364E-2,8.569717407E-3,8.778833121E-2
2.756556350E-1,5.556765199E-2,4.169528186E-2,4.916381836E-2,8.510782286E-2
2.806556350E-1,4.875777662E-2,3.341190517E-2,4.266262054E-2,7.289564719E-2
2.856556350E-1,4.991543293E-2,6.106607616E-2,1.475906372E-2,8.023992812E-2
2.906556350E-1,5.161993206E-2,6.889697909E-2,-3.392696381E-2,9.253350737E-2
2.956556350E-1,3.861722350E-2,7.536914945E-2,-9.038352966E-2,1.238587142E-1
3.006556350E-1,3.196626902E-2,1.203901619E-1,-1.276741028E-1,1.783712700E-1
3.056556350E-1,4.165689647E-2,1.180808842E-1,-1.463727951E-1,1.926223959E-1
3.106556350E-1,4.518029094E-2,9.907637537E-2,-1.159067154E-1,1.590338125E-1
3.156556350E-1,5.157881975E-2,1.044694632E-1,-6.788825989E-2,1.348445743E-1
3.206556350E-1,4.502163827E-2,6.667372584E-2,-1.089000702E-2,8.118451751E-2
3.256556350E-1,5.575206876E-2,4.902622104E-2,-2.155303955E-4,7.424223847E-2
3.306556350E-1,5.853375793E-2,4.216586053E-2,8.635520935E-3,7.265488857E-2
3.356556350E-1,5.542346835E-2,5.522787571E-2,-9.899139404E-3,7.886616550E-2
3.406556350E-1,7.123148441E-2,5.965410173E-2,-5.392169952E-2,1.074247919E-1
3.456556350E-1,5.429995060E-2,8.095352352E-2,-8.388900757E-2,1.286053000E-1
3.506556350E-1,4.588273168E-2,1.069082469E-1,-1.088943481E-1,1.593504860E-1
3.556556350E-1,5.103713274E-2,8.930376172E-2,-8.696746826E-2,1.346970353E-1
3.606556350E-1,2.374903858E-2,1.065530330E-1,-7.655429840E-2,1.333346402E-1
3.656556350E-1,2.014094591E-2,1.224720627E-1,-5.241203308E-2,1.347296740E-1
3.706556350E-1,2.589057386E-2,8.150067925E-2,-3.293037415E-2,9.163564849E-2
3.756556350E-1,3.119838238E-2,7.908700407E-2,-1.703739166E-2,8.670851163E-2
3.806556350E-1,5.843967199E-2,6.868024170E-2,-8.365631104E-3,9.056574765E-2
3.856556350E-1,5.411960185E-2,6.301148236E-2,-2.811908722E-2,8.769299447E-2
3.906556350E-1,5.083231628E-2,5.478847027E-2,-4.183006287E-2,8.564727090E-2
3.956556350E-1,5.482771993E-2,7.881143689E-2,-5.950069427E-2,1.129497856E-1
4.006556350E-1,4.140160978E-2,8.052422106E-2,-8.056354523E-2,1.211970639E-1
4.056556350E-1,2.751158178E-2,1.033291966E-1,-7.392215729E-2,1.299934434E-1
4.106556350E-1,2.289266884E-2,1.048608869E-1,-6.987857819E-2,1.280737896E-1
4.156556350E-1,2.597741783E-2,1.008149683E-1,-5.675888062E-2,1.185751011E-1
4.206556350E-1,4.378467798E-2,7.886393368E-2,-3.829383850E-2,9.799508217E-2
4.256556350E-1,4.885903001E-2,7.652443647E-2,-4.551124573E-2,1.015601678E-1
4.306556350E-1,4.661655426E-2,5.201250315E-2,-5.740165710E-2,9.040660293E-2
4.356556350E-1,5.632311106E-2,5.227288604E-2,-4.749107361E-2,9.033354596E-2
4.406556350E-1,4.836548865E-2,6.289795041E-2,-4.902458191E-2,9.326726269E-2
4.456556350E-1,3.955279291E-2,5.131733418E-2,-5.219650269E-2,8.320076386E-2
4.506556350E-1,4.371643066E-2,7.258227468E-2,-3.400611877E-2,9.130021370E-2
4.556556350E-1,4.369701445E-2,9.751564264E-2,-3.896522522E-2,1.137410146E-1
4.606556350E-1,3.919140995E-2,8.987151086E-2,-4.880523682E-2,1.095208027E-1
4.656556350E-1,3.878465295E-2,1.003927290E-1,-5.386829376E-2,1.203525755E-1
4.706556350E-1,3.853228688E-2,9.380304813E-2,-3.624248505E-2,1.076906063E-1
4.756556350E-1,3.450696170E-2,6.226579845E-2,-5.549526215E-2,9.026341553E-2
4.806556350E-1,3.645075858E-2,6.035101414E-2,-4.428482056E-2,8.325892168E-2
4.856556350E-1,2.404838800E-2,5.173236132E-2,-4.687881470E-2,7.383891549E-2
4.906556350E-1,2.852135897E-2,4.660955071E-2,-3.109169006E-2,6.286979661E-2
4.956556350E-1,3.038659692E-2,7.420533895E-2,-3.652095795E-2,8.811105476E-2
5.006556350E-1,5.098132789E-2,7.623802125E-2,-4.060554504E-2,1.003002591E-1
5.056556350E-1,3.878644109E-2,7.574771345E-2,-4.230594635E-2,9.503629413E-2
5.106556350E-1,3.752331436E-2,9.352400899E-2,-4.549980164E-2,1.105665923E-1
5.156556350E-1,4.355588555E-2,7.328715920E-2,-5.299568176E-2,1.003825939E-1
5.206556350E-1,2.712400258E-2,7.108610868E-2,-6.639766693E-2,1.009831498E-1
5.256556350E-1,4.110175371E-2,5.819958448E-2,-4.826259613E-2,8.605709719E-2
5.306556350E-1,3.670805693E-2,4.318918288E-2,-4.409408569E-2,7.181277988E-2
5.356556350E-1,2.798335254E-2,7.154382765E-2,-2.297019958E-2,8.018240059E-2
5.406556350E-1,5.324716866E-2,4.321904480E-2,-8.909225464E-3,6.915577418E-2
5.456556350E-1,2.031432092E-2,6.371223927E-2,-1.506805420E-2,6.854901403E-2
5.506556350E-1,2.763321996E-2,9.174655378E-2,-2.251911163E-2,9.842832603E-2
5.556556350E-1,4.094111919E-2,5.058799684E-2,-3.357315063E-2,7.322893628E-2
5.606556350E-1,7.431462407E-3,7.524555922E-2,-3.845787048E-2,8.482999833E-2
5.656556350E-1,4.101768136E-2,6.620702147E-2,-3.858184814E-2,8.691592997E-2
5.706556350E-1,2.529370785E-2,5.554643273E-2,-5.110073090E-2,7.960190038E-2
5.756556350E-1,2.140493691E-2,6.502060592E-2,-4.947090149E-2,8.445839575E-2
5.806556350E-1,4.942631721E-2,5.067221820E-2,-4.314613342E-2,8.289887430E-2
5.856556350E-1,1.668442786E-2,3.868795931E-2,-3.940200806E-2,5.768575706E-2
5.906556350E-1,2.372747660E-2,7.009643316E-2,-3.253746033E-2,8.084051838E-2
5.956556350E-1,2.726313472E-2,6.019867957E-2,-1.619720459E-2,6.804049509E-2
6.006556350E-1,2.748273313E-2,3.991791606E-2,-2.180290222E-2,5.314232953E-2
6.056556350E-1,3.351724148E-2,8.700984716E-2,-2.472972870E-2,9.646594457E-2
6.106556350E-1,4.823631048E-2,6.944835186E-2,-3.545475006E-2,9.168890078E-2
6.156556350E-1,1.226110756E-2,5.691839755E-2,-5.661010742E-2,8.120802300E-2
6.206556350E-1,5.256614089E-2,7.696580887E-2,-6.504058838E-2,1.136539178E-1
6.256556350E-1,3.896412253E-2,3.833808005E-2,-4.458904266E-2,7.054214309E-2
6.306556350E-1,4.742339253E-3,5.189386010E-2,-3.903198242E-2,6.510728185E-2
6.356556350E-1,4.926216602E-2,3.943836689E-2,-1.872634888E-2,6.582417433E-2
6.406556350E-1,1.327711344E-2,3.346811235E-2,-2.227497101E-2,4.233876024E-2
6.456556350E-1,1.262456179E-3,7.069699466E-2,-1.802349091E-2,7.296920634E-2
6.506556350E-1,4.106236994E-2,4.286144674E-2,-1.751804352E-2,6.188783152E-2
6.556556350E-1,-9.621918201E-3,5.882810056E-2,-3.073787689E-2,6.706820261E-2
6.606556350E-1,2.849584818E-2,6.963023543E-2,-2.885627747E-2,8.057957433E-2
6.656556350E-1,2.379275858E-2,7.541829348E-2,-3.102684021E-2,8.495103981E-2
6.706556350E-1,1.716472208E-2,6.774494052E-2,-6.199455261E-2,9.342017557E-2
6.756556350E-1,4.017663002E-2,5.736345053E-2,-4.588222504E-2,8.372517919E-2
6.806556350E-1,2.498011291E-2,8.692057431E-2,-2.136707306E-2,9.292870434E-2
6.856556350E-1,2.674007416E-2,2.433523536E-2,-2.044582367E-2,4.153633291E-2
6.906556350E-1,3.295186162E-2,5.411776900E-2,-1.433658600E-2,6.496226446E-2
6.956556350E-1,2.100226283E-2,6.426990032E-2,-2.200603485E-2,7.110541963E-2
7.006556350E-1,2.774974704E-2,2.853901684E-2,-3.302383423E-2,5.172134540E-2
7.056556350E-1,4.282727838E-3,3.153622150E-2,-2.697277069E-2,4.171816611E-2
7.106556350E-1,1.963518560E-2,5.635115504E-2,-4.202842712E-2,7.298891611E-2
7.156556350E-1,4.074752331E-2,3.087651730E-2,-5.681133270E-2,7.642805440E-2
7.206556350E-1,7.881745696E-3,4.880870879E-2,-4.727840424E-2,6.840803663E-2
7.256556350E-1,4.763537645E-2,5.216141045E-2,-3.851127625E-2,8.045533064E-2
7.306556350E-1,3.609675169E-2,4.982429743E-2,-3.675842285E-2,7.167020125E-2
7.356556350E-1,3.468780220E-2,6.281360984E-2,-1.654815674E-2,7.363854082E-2
7.406556350E-1,-1.256501675E-2,4.487343132E-2,-2.334594727E-2,5.212041575E-2
7.456556350E-1,1.915025711E-2,3.872799873E-2,-1.868343353E-2,4.707080753E-2
7.506556350E-1,-4.302158952E-2,6.230297685E-2,-3.398036957E-2,8.298905714E-2
7.556556350E-1,7.779449224E-4,3.715175390E-2,-3.756427765E-2,5.283874499E-2
7.606556350E-1,8.620008826E-3,6.740002334E-2,-2.454757690E-2,7.224715379E-2
7.656556350E-1,7.811878622E-2,6.429907680E-2,-2.295017242E-2,1.037478985E-1
7.706556350E-1,3.687548637E-2,4.046945274E-2,-1.706123352E-2,5.734687253E-2
7.756556350E-1,1.134168506E-1,4.673488438E-2,-2.911472321E-2,1.260761616E-1
7.806556350E-1,5.794999003E-2,5.554370582E-2,-6.394481659E-2,1.026267225E-1
7.856556350E-1,2.305398881E-2,2.026662230E-3,-8.289146423E-2,8.606153963E-2
7.906556350E-1,-2.515819669E-2,2.481274307E-2,-7.293128967E-2,8.104060768E-2
7.956556350E-1,7.702106237E-2,1.885308325E-2,-4.844665527E-2,9.292341580E-2
8.006556350E-1,-2.040284872E-2,2.118170261E-2,2.311706543E-2,3.740774620E-2
8.056556350E-1,-4.846148193E-2,3.544978797E-2,7.556343079E-2,9.651442778E-2
8.106556350E-1,1.008033454E-1,6.481894851E-2,5.730724335E-2,1.328417505E-1
8.156556350E-1,4.172970355E-2,3.752243519E-2,-6.837558746E-2,8.845632969E-2
8.206556350E-1,5.727083981E-2,4.849328101E-2,-1.563615799E-1,1.734372828E-1
8.256556350E-1,3.140667081E-2,3.427797556E-2,-1.425914764E-1,1.499789576E-1
8.306556350E-1,-6.273901463E-2,6.889651716E-2,-1.160326004E-1,1.488169291E-1
8.356556350E-1,8.218082786E-2,5.040247738E-2,-1.134729385E-1,1.488966285E-1
8.406556350E-1,-6.568389386E-2,5.218954384E-2,-1.122131348E-1,1.401067808E-1
8.456556350E-1,-2.601962090E-1,1.211061627E-1,-2.387647629E-1,3.733328030E-1
8.506556350E-1,-2.175305188E-1,1.433253139E-1,-2.862882614E-1,3.870692972E-1
8.556556350E-1,-7.127795815E-1,-1.320050359E-1,3.731355667E-1,8.152976220E-1
8.606556350E-1,-2.099507570E0,-1.023726389E-1,1.480547905E0,2.571076485E0
8.656556350E-1,-3.338814259E0,1.718747318E-1,-1.082410812E-1,3.344986952E0
8.706556350E-1,-3.265645027E0,9.257630110E-1,-1.205545425E0,3.602056964E0
8.756556350E-1,-2.685566425E0,1.073945522E0,1.861438751E-1,2.898322886E0
8.806556350E-1,-2.876316071E0,8.958051205E-1,1.375583649E0,3.311780688E0
8.856556350E-1,-3.972346067E0,7.713264823E-1,7.396535873E-1,4.113583019E0
8.906556350E-1,-5.393175125E0,8.119407892E-1,-4.115304947E-1,5.469455469E0
8.956556350E-1,-6.615742683E0,8.750715852E-1,-7.014656067E-1,6.710130813E0
9.006556350E-1,-7.039007664E0,6.728388071E-1,-2.621650696E-1,7.075950217E0
9.056556350E-1,-7.120256901E0,4.168021679E-1,2.661714554E-1,7.137410569E0
9.106556350E-1,-6.819370747E0,1.068678498E-1,4.035558701E-1,6.832136961E0
9.156556350E-1,-6.084598541E0,-9.873390198E-2,3.760786057E-1,6.097009341E0
9.206556350E-1,-5.492528439E0,-8.791576326E-2,2.086687088E-1,5.497193871E0
9.256556350E-1,-4.797976971E0,-6.208705902E-2,-4.255390167E-2,4.798567354E0
9.306556350E-1,-3.984991312E0,-1.145820916E-1,-9.777641296E-2,3.987837138E0
9.356556350E-1,-2.949059010E0,-3.136366904E-1,-1.033191681E-1,2.967489152E0
9.406556350E-1,-1.762782574E0,-4.484726787E-1,5.160045624E-2,1.819668308E0
9.456556350E-1,-6.550830603E-1,-5.657230616E-1,2.702608109E-1,9.067619887E-1
9.506556350E-1,1.866645962E-1,-6.068266034E-1,2.334251404E-1,6.764388326E-1
9.556556350E-1,7.290597558E-1,-7.668738365E-1,3.420829773E-3,1.058128211E0
9.606556350E-1,5.698354840E-1,-9.892517924E-1,-2.824058533E-1,1.176046195E0
9.656556350E-1,-3.991472721E-2,-1.328207374E0,-5.879821777E-1,1.453083292E0
9.706556350E-1,-1.006714702E0,-1.666695714E0,-6.839036942E-1,2.063752252E0
9.756556350E-1,-1.971438527E0,-1.912017465E0,-5.714101791E-1,2.805154228E0
9.806556350E-1,-2.880739450E0,-2.017562866E0,-3.200721741E-1,3.531524585E0
9.856556350E-1,-3.578683615E0,-2.163367748E0,5.965995789E-2,4.182187913E0
9.906556350E-1,-4.128111362E0,-2.268966198E0,4.408540726E-1,4.731158774E0
9.956556350E-1,-4.727175236E0,-2.437515974E0,6.644840240E-1,5.359963512E0
1.000655635E0,-5.308017254E0,-2.652932882E0,6.009035110E-1,5.964409868E0
1.005655635E0,-5.758717060E0,-3.099913836E0,3.861246109E-1,6.551441077E0
1.010655635E0,-6.233246803E0,-3.800964594E0,1.228113174E-1,7.301765552E0
1.015655635E0,-6.575920582E0,-4.667502880E0,-1.397323608E-2,8.064025662E0
1.020655635E0,-6.675821304E0,-5.652799606E0,8.375263214E-2,8.748013945E0
1.025655635E0,-6.476597786E0,-6.603049755E0,5.497541428E-1,9.265463538E0
1.030655635E0,-6.152760506E0,-7.584762573E0,9.154605865E-1,9.809340101E0
1.035655635E0,-5.577407837E0,-8.493278503E0,1.137220383E0,1.022431064E1
1.040655635E0,-5.090745449E0,-9.113513947E0,1.129387856E0,1.049987346E1
1.045655635E0,-4.701536179E0,-9.357177734E0,6.780033112E-1,1.049385087E1
1.050655635E0,-3.764005423E0,-9.268979073E0,1.511898041E-1,1.000522705E1
1.055655635E0,-2.459565163E0,-9.073027611E0,-1.678085327E-1,9.401991838E0
1.060655635E0,-1.174439192E0,-9.053385735E0,-6.468420029E-1,9.152131186E0
1.065655635E0,-1.559057832E-1,-8.492814064E0,-1.976572990E0,8.721183298E0
1.070655635E0,1.194383144E0,-7.795941353E0,-2.507572651E0,8.275939419E0
1.075655635E0,2.955499411E0,-7.135725021E0,-1.584193230E0,7.884365322E0
1.080655635E0,4.802192211E0,-6.543877125E0,1.184654236E-1,8.117722089E0
1.085655635E0,6.367658615E0,-6.168392181E0,1.688186646E0,9.024749996E0
1.090655635E0,7.236701965E0,-5.970983505E0,2.257663727E0,9.649846883E0
1.095655635E0,7.280108452E0,-5.859012127E0,2.009360313E0,9.558531846E0
1.100655635E0,6.762517929E0,-5.833339691E0,1.260988235E0,9.019400868E0
1.105655635E0,5.718029022E0,-5.686793804E0,3.058624268E-1,8.070255975E0
1.110655635E0,4.604737282E0,-5.431699276E0,-6.152467728E-1,7.147411493E0
1.115655635E0,4.409256935E0,-4.661539078E0,-1.296849251E0,6.546244058E0
1.120655635E0,4.170191765E0,-4.046199799E0,-1.848130226E0,6.097361519E0
1.125655635E0,4.180743217E0,-3.539424419E0,-2.202962875E0,5.904166707E0
1.130655635E0,4.435094833E0,-3.122046947E0,-1.928082943E0,5.756278933E0
1.135655635E0,4.843390465E0,-2.755950451E0,-6.982679367E-1,5.616161696E0
1.140655635E0,5.240314007E0,-2.440539122E0,1.010613441E0,5.868429230E0
1.145655635E0,5.411983013E0,-2.149159908E0,2.035456657E0,6.168592404E0
1.150655635E0,5.197171688E0,-1.834636569E0,1.685865402E0,5.763560276E0
1.155655635E0,4.882757664E0,-1.548520684E0,4.985170364E-1,5.146625880E0
1.160655635E0,4.471193790E0,-1.330030203E0,-5.450429916E-1,4.696554707E0
1.165655635E0,4.236157417E0,-1.198658824E0,-9.277172089E-1,4.499163462E0
1.170655635E0,4.573426723E0,-1.391122580E0,-7.217912674E-1,4.834504800E0
1.175655635E0,5.357248783E0,-1.645702362E0,-3.361024857E-1,5.614393615E0
1.180655635E0,5.684392929E0,-1.441565275E0,-1.491765976E-1,5.866232784E0
1.185655635E0,5.815204620E0,-1.076755524E0,9.969329834E-2,5.914891883E0
1.190655635E0,5.321208477E0,-4.712378979E-1,4.786043167E-1,5.363430516E0
1.195655635E0,4.013849735E0,3.126322031E-1,6.160306931E-1,4.072864153E0
1.200655635E0,2.244542360E0,1.011037946E0,2.600097656E-1,2.475433944E0
1.205655635E0,4.907635152E-1,1.563569903E0,-2.608222961E-1,1.659405900E0
1.210655635E0,-9.313039184E-1,1.014656425E0,-6.996688843E-1,1.544794872E0
1.215655635E0,-1.017390132E0,2.583400607E-1,-6.590900421E-1,1.239444211E0
1.220655635E0,-5.067391396E-1,-1.018750966E-1,-1.518936157E-1,5.387344071E-1
1.225655635E0,-3.597553968E-1,-2.358492315E-1,1.975774765E-1,4.733768739E-1
1.230655635E0,-2.982003689E-1,-3.514467180E-1,1.921463013E-1,4.993580446E-1
1.235655635E0,-2.128503472E-1,-3.221139312E-1,-6.436729431E-2,3.914151294E-1
1.240655635E0,-1.085454151E-1,-2.941898108E-1,-3.156757355E-1,4.449504712E-1
1.245655635E0,-6.671273708E-2,-2.990094423E-1,-3.485088348E-1,4.640211675E-1
1.250655635E0,-1.214791909E-1,-2.982622981E-1,-1.858587265E-1,3.718347193E-1
1.255655635E0,-2.310553044E-1,-2.563092709E-1,-5.890369415E-2,3.500723371E-1
1.260655635E0,-3.396670222E-1,-1.827120781E-1,-5.156993866E-2,3.891231785E-1
1.265655635E0,-3.674352467E-1,-9.800586104E-2,-1.538515091E-1,4.102244461E-1
1.270655635E0,-2.974452078E-1,-6.285151839E-2,-1.595478058E-1,3.433357939E-1
1.275655635E0,-1.976699978E-1,-9.028291702E-2,-6.483173370E-2,2.267765130E-1
1.280655635E0,-3.237820044E-2,-1.611377299E-1,1.121969223E-1,1.990021739E-1
1.285655635E0,1.466555148E-1,-2.526355982E-1,2.568731308E-1,3.889940756E-1
1.290655635E0,2.572566569E-1,-3.347514272E-1,2.987718582E-1,5.172080131E-1
1.295655635E0,2.527813315E-1,-3.548781872E-1,2.777423859E-1,5.166989087E-1
1.300655635E0,1.953414381E-1,-3.603793681E-1,1.836719513E-1,4.491847638E-1
1.305655635E0,1.369986683E-1,-3.775801659E-1,7.089805603E-2,4.078749209E-1
1.310655635E0,2.182350308E-2,-3.995914161E-1,-5.999279022E-2,4.046587451E-1
1.315655635E0,-3.020482697E-2,-4.576427639E-1,-1.923761368E-1,4.973507906E-1
1.320655635E0,-2.695503179E-3,-5.419255495E-1,-3.078842163E-1,6.232842510E-1
1.325655635E0,8.984979242E-2,-6.632975936E-1,-3.324785233E-1,7.473811954E-1
1.330655635E0,1.854893416E-1,-7.639133334E-1,-2.339963913E-1,8.201976518E-1
1.335655635E0,1.283864677E-1,-6.429845095E-1,-4.815006256E-2,6.574424637E-1
1.340655635E0,-3.324103355E-2,-3.649312556E-1,1.568603516E-1,3.986037600E-1
1.345655635E0,-1.361206025E-1,-1.666117907E-1,2.699050903E-1,3.451623748E-1
1.350655635E0,-5.502377450E-2,-1.221268773E-1,2.622861862E-1,2.945108375E-1
1.355655635E0,1.019570529E-1,-2.473793924E-1,9.883213043E-2,2.852360328E-1
1.360655635E0,1.923037767E-1,-4.003295302E-1,-1.574211121E-1,4.711962244E-1
1.365655635E0,2.816146612E-1,-6.126102209E-1,-3.948040009E-1,7.813247080E-1
1.370655635E0,4.861840904E-1,-8.453598619E-1,-4.362154007E-1,1.068312755E0
1.375655635E0,6.901215315E-1,-1.082107186E0,-3.018484116E-1,1.318459766E0
1.380655635E0,8.298000097E-1,-1.279779315E0,-7.395935059E-2,1.527047195E0
1.385655635E0,9.444111586E-1,-1.437793255E0,1.311092377E-1,1.725210570E0
1.390655635E0,1.006596327E0,-1.598953485E0,2.323703766E-1,1.903650285E0
1.395655635E0,1.002665043E0,-1.680819035E0,2.266073227E-1,1.970238740E0
1.400655635E0,1.065039158E0,-1.832072854E0,7.708072662E-2,2.120552001E0
1.405655635E0,9.760651588E-1,-2.118097067E0,-1.106252670E-1,2.334796850E0
1.410655635E0,8.054411411E-1,-2.503394365E0,-2.946109772E-1,2.646226447E0
1.415655635E0,1.071877122E0,-2.549557447E0,5.918216705E-2,2.766345291E0
1.420655635E0,1.801710725E0,-2.245477200E0,1.037922859E0,3.060328945E0
1.425655635E0,2.660480261E0,-2.168596506E0,1.218127251E0,3.642087317E0
1.430655635E0,3.371997833E0,-2.269591093E0,4.794883728E-1,4.092837917E0
1.435655635E0,4.464376450E0,-2.763825893E0,-3.256950378E-1,5.260747847E0
1.440655635E0,5.331424236E0,-3.377003431E0,-6.778202057E-1,6.347257423E0
1.445655635E0,5.948383808E0,-3.996353865E0,-5.657005310E-1,7.188472107E0
1.450655635E0,6.221142292E0,-4.325916290E0,-1.659898758E-1,7.579163266E0
1.455655635E0,6.383152008E0,-4.418958187E0,3.569030762E-1,7.771692275E0
1.460655635E0,6.173417568E0,-4.137844086E0,7.467117310E-1,7.469298264E0
1.465655635E0,5.627323627E0,-3.706508636E0,8.593816757E-1,6.792901762E0
1.470655635E0,4.591565132E0,-3.438483477E0,4.420700073E-1,5.753352490E0
1.475655635E0,3.646004677E0,-3.433037281E0,-4.132432938E-1,5.024924387E0
1.480655635E0,2.698060036E0,-3.484816551E0,-9.505023956E-1,4.508539581E0
1.485655635E0,1.573800087E0,-3.373683929E0,-8.247079849E-1,3.812969083E0
1.490655635E0,6.122105718E-1,-3.174960613E0,-2.446794510E-1,3.242690968E0
1.495655635E0,-5.348442122E-2,-3.119564533E0,2.948465347E-1,3.133923729E0
1.500655635E0,-1.008323669E0,-3.100774527E0,7.082586288E-1,3.336637465E0
1.505655635E0,-1.575481653E0,-3.220459938E0,9.693813324E-1,3.713920411E0
1.510655635E0,-1.780989885E0,-3.235013723E0,9.048423767E-1,3.802101851E0
1.515655635E0,-1.875002146E0,-2.944159508E0,6.775121689E-1,3.555661822E0
1.520655635E0,-1.879085779E0,-2.732316732E0,-2.065315247E-1,3.322525149E0
1.525655635E0,-1.621042132E0,-2.856778622E0,-1.737975121E0,3.716116146E0
1.530655635E0,-1.478931189E0,-2.891946554E0,-3.220201492E0,4.573870351E0
1.535655635E0,-1.563736439E0,-2.881820679E0,-4.136933327E0,5.278672127E0
1.540655635E0,-1.837661028E0,-2.742410421E0,-4.163889885E0,5.313736157E0
1.545655635E0,-2.203644514E0,-2.439369440E0,-3.651341438E0,4.913132067E0
1.550655635E0,-2.788297653E0,-2.021054506E0,-2.931506634E0,4.522498896E0
1.555655635E0,-4.406674385E0,-2.152209997E0,-6.804676056E-1,4.951143622E0
1.560655635E0,-7.267357826E0,-2.112746954E0,7.517096519E0,1.066700190E1
1.565655635E0,-6.638540745E0,-1.079855919E0,1.182766533E1,1.360624780E1
1.570655635E0,-4.124353409E0,-4.976720810E-1,6.489667892E0,7.705436905E0
1.575655635E0,-2.979733706E0,-1.050773025E0,6.063270569E-2,3.160160317E0
1.580655635E0,-2.489716768E0,-1.737351060E0,-3.346680641E0,4.518556142E0
1.585655635E0,-2.541248560E0,-2.456329107E0,-4.243966103E0,5.522929042E0
1.590655635E0,-3.243503332E0,-3.180983543E0,-2.986481667E0,5.436730903E0
1.595655635E0,-3.998965740E0,-3.435311794E0,-6.790943146E-1,5.315473940E0
1.600655635E0,-4.332804680E0,-3.071594477E0,1.456925392E0,5.507315192E0
1.605655635E0,-4.253826141E0,-2.278423786E0,2.826379776E0,5.592376456E0
1.610655635E0,-4.268381119E0,-1.550587416E0,3.095788956E0,5.496117536E0
1.615655635E0,-4.176006794E0,-1.140890241E0,2.033204079E0,4.782737930E0
1.620655635E0,-4.014511108E0,-8.286464214E-1,6.527662277E-1,4.150790055E0
1.625655635E0,-3.852789164E0,-5.090730190E-1,-4.640903473E-1,3.913888032E0
1.630655635E0,-3.480816841E0,-2.123412341E-1,-1.484286308E0,3.790023816E0
1.635655635E0,-2.756188393E0,-1.148804724E-1,-2.449961185E0,3.689455487E0
1.640655635E0,-2.466013670E0,2.245539725E-1,-2.273185730E0,3.361401682E0
1.645655635E0,-2.449535608E0,4.445825219E-1,-9.458761215E-1,2.663186053E0
1.650655635E0,-2.330094814E0,5.599313378E-1,-4.982452393E-1,2.447675073E0
1.655655635E0,-2.095398664E0,4.735929370E-1,-7.218103409E-1,2.266273594E0
1.660655635E0,-2.016985893E0,4.289737642E-1,-7.208395004E-1,2.184458782E0
1.665655635E0,-2.066614628E0,4.982135892E-1,-3.025846481E-1,2.147247138E0
1.670655635E0,-2.199781656E0,7.228122950E-1,3.862247467E-1,2.347480885E0
1.675655635E0,-2.133103132E0,8.099750280E-1,1.162196159E0,2.560642191E0
1.680655635E0,-1.933577657E0,7.595815063E-1,1.574300766E0,2.606551270E0
1.685655635E0,-1.636321664E0,5.281525850E-1,1.735827446E0,2.443274578E0
1.690655635E0,-1.255143166E0,2.470630109E-1,1.427815437E0,1.917050187E0
1.695655635E0,-8.326263428E-1,-5.219182372E-2,6.965770721E-1,1.086834960E0
1.700655635E0,-4.352268875E-1,-3.319856226E-1,-2.003488541E-1,5.829035602E-1
1.705655635E0,-1.943159103E-1,-4.505354762E-1,-1.017606735E0,1.129718707E0
1.710655635E0,-4.867555499E-1,-2.471084595E-1,-1.510789871E0,1.606387124E0
1.715655635E0,-8.517608643E-1,2.350032330E-3,-1.611721039E0,1.822950027E0
1.720655635E0,-1.135782242E0,4.033616781E-1,-1.305228233E0,1.776604257E0
1.725655635E0,-1.400838494E0,8.979079723E-1,-6.904373169E-1,1.801469096E0
1.730655635E0,-1.597340822E0,1.332179785E0,1.822662354E-1,2.087922810E0
1.735655635E0,-1.855624080E0,1.653270960E0,1.070193291E0,2.705911911E0
1.740655635E0,-2.175929785E0,1.751664519E0,1.625988960E0,3.232157038E0
1.745655635E0,-2.638769150E0,1.570021391E0,1.473464012E0,3.405754834E0
1.750655635E0,-2.926117182E0,8.867712021E-1,6.979875565E-1,3.136193801E0
1.755655635E0,-2.282606363E0,-9.761764109E-2,-1.769666672E-1,2.291536213E0
1.760655635E0,-1.359639913E-1,-5.305931568E-1,-5.447359085E-1,7.724975825E-1
1.765655635E0,1.250349641E0,-2.764602900E-1,-5.370979309E-1,1.388624753E0
1.770655635E0,4.136107564E-1,3.950715065E-2,-5.928573608E-1,7.239575423E-1
1.775655635E0,-2.838133574E-1,-7.636427879E-3,-6.037206650E-1,6.671483929E-1
1.780655635E0,1.191485822E-1,-1.090942621E-1,-3.284034729E-1,3.659874092E-1
1.785655635E0,5.730406642E-1,-3.006392717E-2,-8.373928070E-2,5.799066388E-1
1.790655635E0,7.655605674E-1,-6.236079335E-2,4.192447662E-2,7.692395678E-1
1.795655635E0,8.331372738E-1,-2.464141548E-1,2.277660370E-2,8.691124359E-1
1.800655635E0,8.839097023E-1,-4.563229084E-1,-1.382417679E-1,1.004309586E0
1.805655635E0,9.783643484E-1,-6.821821928E-1,-3.086776733E-1,1.232011059E0
1.810655635E0,1.037829280E0,-9.341528416E-1,-3.562059402E-1,1.441046084E0
1.815655635E0,1.104291439E0,-1.090438128E0,-2.742938995E-1,1.575992397E0
1.820655635E0,9.833828211E-1,-1.047447562E0,8.304595947E-3,1.436752287E0
1.825655635E0,7.355950475E-1,-7.452704906E-1,4.967956543E-1,1.159022908E0
1.830655635E0,5.060708523E-1,-2.931073010E-1,9.251489639E-1,1.094495410E0
1.835655635E0,2.457202673E-1,9.214273095E-2,1.079831123E0,1.111262340E0
1.840655635E0,6.628095359E-2,2.091391683E-1,8.222408295E-1,8.510066616E-1
1.845655635E0,-1.388002187E-1,1.223859489E-1,2.184219360E-1,2.862725333E-1
1.850655635E0,-2.026951313E-1,-1.206917018E-1,-3.367156982E-1,4.111316876E-1
1.855655635E0,-3.966720104E-1,-1.663508862E-1,-5.693693161E-1,7.135844164E-1
1.860655635E0,-4.298511147E-1,-4.191330075E-2,-4.528617859E-1,6.257895035E-1
1.865655635E0,-5.259650946E-1,3.064151704E-1,-7.149314880E-2,6.128954297E-1
1.870655635E0,-6.591070890E-1,6.841708422E-1,2.586660385E-1,9.845912937E-1
1.875655635E0,-6.827922463E-1,9.803572893E-1,4.908266068E-1,1.291594528E0
1.880655635E0,-6.891803145E-1,1.270176649E0,5.665693283E-1,1.552198128E0
1.885655635E0,-5.561767817E-1,1.528660178E0,5.296974182E-1,1.710764130E0
1.890655635E0,-1.619582176E-1,1.673623443E0,4.494142532E-1,1.740465186E0
1.895655635E0,4.780641198E-1,1.592686772E0,4.668169022E-1,1.727169499E0
1.900655635E0,9.574774504E-1,1.292875409E0,6.600494385E-1,1.738952315E0
1.905655635E0,9.401253462E-1,1.157416821E0,1.009370804E0,1.800632884E0
1.910655635E0,8.565993905E-1,1.137234449E0,1.376719475E0,1.980510344E0
1.915655635E0,5.725623369E-1,1.186484218E0,1.727160454E0,2.172246685E0
1.920655635E0,3.697568178E-1,1.098822236E0,1.936699867E0,2.257196665E0
1.925655635E0,2.043454647E-1,9.525913596E-1,1.960741043E0,2.189450343E0
1.930655635E0,7.360363007E-2,7.982662916E-1,1.961289406E0,2.118797466E0
1.935655635E0,1.077759266E-1,6.880053282E-1,2.120319366E0,2.231752943E0
1.940655635E0,3.144626617E-1,6.379605532E-1,2.356396675E0,2.461399139E0
1.945655635E0,1.508688927E-1,7.515629530E-1,2.641390800E0,2.750373367E0
1.950655635E0,1.856646538E-1,7.013733983E-1,2.709487915E0,2.804945769E0
1.955655635E0,2.661371231E-1,6.100488305E-1,2.302158356E0,2.396439367E0
1.960655635E0,5.018320084E-1,5.235842466E-1,1.487817764E0,1.655166918E0
1.965655635E0,7.555387020E-1,4.909588099E-1,5.468301773E-1,1.053993608E0
1.970655635E0,6.952860355E-1,5.591800213E-1,3.536415100E-2,8.929476976E-1
1.975655635E0,6.833822727E-1,4.733252823E-1,-6.445407867E-2,8.337880317E-1
1.980655635E0,6.700029373E-1,2.290371358E-1,-2.373981476E-2,7.084670242E-1
1.985655635E0,1.784706116E-1,4.442632198E-4,-1.359176636E-2,1.789879680E-1
1.990655635E0,-2.453937531E-1,-2.348805964E-1,1.177635193E-1,3.595208409E-1
1.995655635E0,-5.988755226E-1,-2.565990984E-1,3.666419983E-1,7.476104225E-1
2.000655635E0,-9.566321373E-1,-1.580311358E-1,6.526002884E-1,1.168762603E0
2.005655635E0,-8.149895668E-1,-2.253052592E-1,7.099256516E-1,1.104067428E0
2.010655635E0,-6.061682701E-1,-2.994583249E-1,3.596839905E-1,7.658249363E-1
2.015655635E0,-4.553747177E-1,-4.212540984E-1,-5.773620605E-1,8.474479913E-1
2.020655635E0,-1.748790741E-1,-5.662759542E-1,-1.437807560E0,1.555166141E0
2.025655635E0,2.608442307E-2,-6.475206017E-1,-1.954632282E0,2.059259742E0
2.030655635E0,1.635279655E-1,-6.981917620E-1,-2.177488804E0,2.292524945E0
2.035655635E0,2.174630165E-1,-6.725264788E-1,-2.084791183E0,2.201348747E0
2.040655635E0,-4.420280457E-4,-5.439938307E-1,-1.928603172E0,2.003856202E0
2.045655635E0,-1.714344025E-1,-3.772659600E-1,-1.694709301E0,1.744637204E0
2.050655635E0,-6.164455414E-2,-5.873519182E-2,-1.076657295E0,1.080018891E0
2.055655635E0,7.733674049E-1,3.373214602E-1,-1.661272049E-1,8.599309035E-1
2.060655635E0,1.716909409E0,2.341131270E-1,1.785030365E-1,1.741967338E0
2.065655635E0,2.637473106E0,-2.078739703E-1,7.469654083E-2,2.646706547E0
2.070655635E0,3.612974644E0,-7.574921846E-1,3.678622246E-1,3.709811694E0
2.075655635E0,4.304281235E0,-1.374314308E0,9.690799713E-1,4.621113800E0
2.080655635E0,4.395565510E0,-1.698913693E0,1.601421356E0,4.977133136E0
2.085655635E0,3.840098381E0,-1.236308336E0,2.369215488E0,4.678460848E0
2.090655635E0,3.483472824E0,-9.377772212E-1,2.770196438E0,4.548406022E0
2.095655635E0,2.289556503E0,-7.681525946E-1,8.063964844E-1,2.546056300E0
2.100655635E0,8.002114296E-1,-3.222259879E-1,-1.036130428E0,1.348233727E0
2.105655635E0,-1.385879517E-1,-1.010179222E-1,-1.292743683E0,1.304069580E0
2.110655635E0,-7.971496582E-1,-8.592617512E-2,-8.751125336E-1,1.186866813E0
2.115655635E0,-1.278661728E0,-2.035686970E-1,-6.203875542E-1,1.435721681E0
2.120655635E0,-1.667309761E0,-4.321725667E-1,-7.585139275E-1,1.882030378E0
2.125655635E0,-1.532206535E0,-8.148821592E-1,-7.847185135E-1,1.904592593E0
2.130655635E0,-1.577702522E0,-1.370043993E0,-5.045132637E-1,2.149581221E0
2.135655635E0,-1.829318047E0,-2.365673780E0,-4.314088821E-2,2.990765468E0
2.140655635E0,-1.346563339E0,-3.646392345E0,-4.873571396E-1,3.917515405E0
2.145655635E0,-4.369163513E-2,-4.074077606E0,-2.138262272E0,4.601324032E0
2.150655635E0,6.804852486E-1,-2.364766598E0,-3.354474783E0,4.160250269E0
2.155655635E0,1.197666168E0,-9.464085102E-2,-3.967819929E0,4.145715394E0
2.160655635E0,2.871191502E0,5.503799915E-1,-4.612854958E0,5.461235175E0
2.165655635E0,4.503645420E0,2.874233425E-1,-5.288315296E0,6.952101331E0
2.170655635E0,5.474940777E0,-4.786589742E-2,-6.022450447E0,8.139236883E0
2.175655635E0,5.904454708E0,-3.064627647E-1,-6.677761555E0,8.919024846E0
2.180655635E0,5.827878952E0,-3.846523464E-1,-7.057121754E0,9.160518433E0
2.185655635E0,5.499124050E0,-3.478773236E-1,-7.335297108E0,9.174310198E0
2.190655635E0,5.192401409E0,-3.052378893E-1,-7.584092617E0,9.196339673E0
2.195655635E0,4.888669014E0,-2.546072602E-1,-7.796792984E0,9.206187616E0
2.200655635E0,4.438088894E0,-1.754820049E-1,-7.825934410E0,8.998481892E0
2.205655635E0,1.856275082E0,4.506679177E-1,-5.336885452E0,5.668439387E0
2.210655635E0,-4.903123379E0,1.788206816E0,1.742649078E0,5.502283916E0
2.215655635E0,-9.876787186E0,2.052481890E0,6.550691605E0,1.202809908E1
2.220655635E0,-9.065366745E0,1.230020285E0,4.350575447E0,1.013021870E1
2.225655635E0,-5.043009758E0,4.284830689E-1,-2.080422878E0,5.472084110E0
2.230655635E0,-2.772436142E0,8.239716291E-3,-5.888700008E0,6.508706311E0
2.235655635E0,-1.972130656E0,-2.036880702E-1,-6.850905895E0,7.132019331E0
2.240655635E0,-2.136692524E0,-3.759473860E-1,-5.110488892E0,5.551926521E0
2.245655635E0,4.271455288E0,6.501324177E-1,1.178784943E1,1.255473602E1
2.250655635E0,2.557596588E1,3.624501944E0,3.969337082E1,4.735853389E1
2.255655635E0,2.237646484E1,3.622460961E-1,3.855947113E1,4.458329525E1
2.260655635E0,8.186165810E0,-5.623660684E-1,2.573979568E1,2.701604427E1
2.265655635E0,-1.866202950E0,1.286269665E0,1.199408245E1,1.220635969E1
2.270655635E0,-1.364401937E0,7.873763442E-1,-8.069000244E-1,1.769927061E0
2.275655635E0,3.579729199E-1,-3.409570456E-2,-8.198103905E0,8.205986520E0
2.280655635E0,6.880623698E-1,-2.099874169E-1,-9.635281563E0,9.662099944E0
2.285655635E0,8.630004525E-1,-1.887471229E-1,-9.473314285E0,9.514414265E0
2.290655635E0,1.103847742E0,-1.918451488E-1,-9.602922440E0,9.668061014E0
2.295655635E0,1.367762804E0,-1.996010542E-1,-9.498435020E0,9.598483396E0
2.300655635E0,1.660173535E0,-2.222397923E-1,-9.067555428E0,9.220961345E0
2.305655635E0,1.946932554E0,-2.715801597E-1,-5.626096725E0,5.959636442E0
2.310655635E0,3.512792587E-1,2.890718877E-1,2.958612442E-1,5.426725990E-1
2.315655635E0,-2.210283518E0,4.340941906E-1,2.101975441E0,3.080923847E0
2.320655635E0,-2.193809271E0,1.912562400E-1,-1.083936691E0,2.454444299E0
2.325655635E0,-5.043513775E-1,5.680203438E-2,-5.581486702E0,5.604515196E0
2.330655635E0,6.587933302E-1,-3.408749402E-2,-7.981267929E0,8.008483525E0
2.335655635E0,8.122315407E-1,-5.720223486E-2,-8.365594864E0,8.405127578E0
2.340655635E0,3.609129190E-1,-3.463028371E-2,-7.429834366E0,7.438675695E0
2.345655635E0,-6.252032518E-1,1.589435339E-2,-4.593996048E0,4.636370501E0
2.350655635E0,-1.985736966E0,2.790924907E-2,-6.971969604E-1,2.104759803E0
2.355655635E0,-3.180042744E0,-8.835243434E-2,3.373932838E0,4.637229863E0
2.360655635E0,-3.665401936E0,-3.826077282E-1,5.289879799E0,6.447044928E0
2.365655635E0,-3.246543884E0,-2.651919425E-2,5.813289642E0,6.658459801E0
2.370655635E0,5.172069073E0,3.232455492E0,9.597946167E0,1.137187925E1
2.375655635E0,1.045196056E1,6.889580488E-1,1.229717541E1,1.615359606E1
2.380655635E0,5.588732243E0,-1.727773309E0,1.039569664E1,1.192852201E1
2.385655635E0,1.664087892E0,5.470855534E-2,8.302248955E0,8.467556864E0
2.390655635E0,-8.043360710E-1,9.093103409E-1,5.377131462E0,5.512471730E0
2.395655635E0,-1.117244363E0,5.619210005E-1,-3.705844879E-1,1.304347745E0
2.400655635E0,-3.727481365E-1,-2.786175907E-2,-5.258463383E0,5.271731651E0
2.405655635E0,8.230352402E-2,-2.317110002E-1,-6.991738319E0,6.996060933E0
2.410655635E0,7.213270664E-2,-3.186817467E-1,-6.952785492E0,6.960458841E0
2.415655635E0,-1.328863502E-1,-4.291526675E-1,-5.404808998E0,5.423448267E0
2.420655635E0,-5.699390769E-1,-6.018631458E-1,-2.809766769E0,2.929481028E0
2.425655635E0,-1.332940221E0,-5.499861240E-1,-1.111534119E0,1.820637928E0
2.430655635E0,-1.701330662E0,-2.804069519E-1,-1.975967407E0,2.622518117E0
2.435655635E0,-1.496119738E0,-1.433557719E-1,-4.630450249E0,4.868264029E0
2.440655635E0,-1.443208098E0,-9.089985490E-2,-6.936165333E0,7.085301823E0
2.445655635E0,-1.107760191E0,1.118867993E0,-8.813174248E0,8.952711240E0
2.450655635E0,1.953793406E0,2.345624447E0,-4.046073914E0,5.068528074E0
2.455655635E0,4.737088203E0,4.589418173E-1,6.629567146E0,8.160992145E0
2.460655635E0,3.819706917E0,-7.853358388E-1,1.613200951E1,1.659664557E1
2.465655635E0,-7.351290584E-1,-2.200739086E-1,1.701515388E1,1.703244871E1
2.470655635E0,-2.881093025E0,3.413090110E-2,9.285365105E0,9.722132845E0
2.475655635E0,-1.507834196E0,-3.088673055E-1,-6.166524887E-1,1.658078185E0
2.480655635E0,-5.931388140E-1,-3.296644986E-1,-6.937418938E0,6.970528951E0
2.485655635E0,-5.422269106E-1,-3.280147910E-1,-8.557209969E0,8.580643692E0
2.490655635E0,-8.242125511E-1,-5.440655947E-1,-8.003167152E0,8.063871165E0
2.495655635E0,-9.530571103E-2,-4.470096231E-1,-6.170892715E0,6.187795867E0
2.500655635E0,2.164765120E0,8.568879962E-2,-1.682822227E0,2.743253769E0
2.505655635E0,3.438511610E0,4.613518417E-1,5.948236465E0,6.886052909E0
2.510655635E0,7.426932454E-1,7.482930422E-1,1.126467705E1,1.131390670E1
2.515655635E0,-2.504241467E0,3.817649782E-1,7.450489998E0,7.869356456E0
2.520655635E0,-1.667779207E0,6.375601888E-2,-8.066616058E-1,1.853713910E0
2.525655635E0,-3.541927338E-1,1.701128483E-1,-5.533699036E0,5.547631557E0
2.530655635E0,7.176040113E-2,1.414704323E-1,-7.363456726E0,7.365165198E0
2.535655635E0,4.129208624E-1,5.841678381E-2,-6.820173264E0,6.832911495E0
2.540655635E0,9.013558030E-1,-8.613078296E-2,-4.496128082E0,4.586396028E0
2.545655635E0,1.375581861E0,-3.130983412E-1,6.655645370E-1,1.559882104E0
2.550655635E0,7.299775481E-1,-3.541597128E-1,6.466577530E0,6.517278671E0
2.555655635E0,-1.102632046E0,1.987555623E-2,8.956604004E0,9.024242226E0
2.560655635E0,-1.284519911E0,1.470856667E-1,5.804174423E0,5.946433076E0
2.565655635E0,1.746091992E-1,1.689536572E-1,2.682809830E-1,3.619508206E-1
2.570655635E0,6.713235974E-1,2.414252162E-1,-3.691215515E0,3.759525700E0
2.575655635E0,5.977751017E-1,2.046567798E-1,-5.162711143E0,5.201231183E0
2.580655635E0,3.836870790E-1,3.770259023E-2,-4.504494190E0,4.520962859E0
2.585655635E0,3.099038452E-2,2.971699834E-2,-1.995563507E0,1.996025354E0
2.590655635E0,-3.089160621E-1,6.139984727E-2,6.838359833E-1,7.528816153E-1
2.595655635E0,-4.948488474E-1,3.315892816E-2,2.695730209E0,2.740973597E0
2.600655635E0,-4.067911804E-1,3.910475969E-2,2.752631187E0,2.782801951E0
2.605655635E0,1.931694448E-1,-4.380860925E-2,1.304866791E0,1.319814748E0
2.610655635E0,4.241003990E-1,1.117127240E-1,-3.581666946E-1,5.662369312E-1
2.615655635E0,4.245801568E-1,8.937746286E-3,-1.362580299E0,1.427225723E0
2.620655635E0,4.507073015E-2,3.478080034E-2,-1.452463150E0,1.453578439E0
2.625655635E0,-5.859355628E-2,2.728134394E-2,-7.038688660E-1,7.068301472E-1
2.630655635E0,-1.693308353E-3,5.498528481E-5,2.994070053E-1,2.994117986E-1
2.635655635E0,-3.559315205E-2,2.031424642E-2,9.848613739E-1,9.857136840E-1
2.640655635E0,1.240241975E-1,2.050200105E-2,1.115908623E0,1.122966780E0
2.645655635E0,2.416358590E-1,3.570383787E-2,7.087421417E-1,7.496519698E-1
2.650655635E0,1.253724396E-1,1.051241457E-1,9.420776367E-2,1.887973447E-1
2.655655635E0,1.515808702E-2,9.280669689E-2,-4.634017944E-1,4.728467761E-1
2.660655635E0,-4.011004046E-2,4.726222157E-2,-8.921098709E-1,8.942608986E-1
2.665655635E0,-1.798803061E-1,1.093659103E-1,-1.024184227E0,1.045596078E0
2.670655635E0,2.358537912E-2,2.285364270E-2,-7.800683975E-1,7.807594149E-1
2.675655635E0,8.038995415E-2,2.403593063E-2,-2.402639389E-1,2.544936758E-1
2.680655635E0,1.864216849E-2,1.652409136E-1,4.338283539E-1,4.646064255E-1
2.685655635E0,2.056335211E-1,4.005140066E-2,8.736925125E-1,8.984586057E-1
2.690655635E0,3.503067493E-1,1.129505634E-1,1.017561913E0,1.082083589E0
2.695655635E0,-5.429305509E-2,3.757055700E-1,5.746212006E-1,6.886885619E-1
2.700655635E0,-5.445480347E-4,3.520852327E-1,-2.875442505E-1,4.545833297E-1
2.705655635E0,1.129562706E-1,2.310418785E-1,-1.259843826E0,1.285825002E0
2.710655635E0,4.062106609E-1,2.973178923E-1,-1.955963135E0,2.019702160E0
2.715655635E0,1.045421982E1,3.958994627E0,-2.007033825E0,1.135748807E1
2.720655635E0,1.278645992E1,5.074901104E0,-1.391752243E0,1.382697193E1
2.725655635E0,5.796766758E0,2.546998739E0,-4.292869568E-1,6.346179537E0
2.730655635E0,3.273952961E0,1.624408007E0,1.765338898E0,4.058804108E0
2.735655635E0,3.864986897E0,1.899792433E0,4.048428535E0,5.910762100E0
2.740655635E0,5.268214703E0,2.128962755E0,5.299079895E0,7.769608504E0
2.745655635E0,5.796536446E0,2.055964231E0,4.437908173E0,7.584316227E0
2.750655635E0,6.484207153E0,2.143999100E0,1.632411957E0,7.021854694E0
2.755655635E0,6.128020287E0,1.662557364E0,-1.729466438E0,6.580864972E0
2.760655635E0,4.958504200E0,1.914559901E-1,-4.005524635E0,6.377119013E0
2.765655635E0,2.973573446E0,-1.616252422E0,-5.066059113E0,6.092566443E0
2.770655635E0,9.519433975E-1,-3.055306196E0,-5.116638184E0,6.034987861E0
2.775655635E0,-1.218645096E0,-3.985810280E0,-4.615008354E0,6.218527283E0
2.780655635E0,-3.322691441E0,-4.228440762E0,-3.711379051E0,6.534089389E0
2.785655635E0,-4.782986641E0,-3.954569578E0,-2.510834694E0,6.694764568E0
2.790655635E0,-4.868878365E0,-3.125161171E0,-7.065954208E-1,5.828540637E0
2.795655635E0,-3.680262327E0,-1.879734278E0,1.908415794E0,4.551898790E0
2.800655635E0,-1.846591473E0,-3.279230893E-1,4.905926704E0,5.252194822E0
2.805655635E0,-1.143621206E-1,1.044632792E0,6.919389725E0,6.998734923E0
2.810655635E0,1.000810623E0,1.944776177E0,6.905965805E0,7.244041688E0
2.815655635E0,2.666966915E0,2.425958395E0,4.747789383E0,5.961500707E0
2.820655635E0,3.722455978E0,2.249265194E0,1.906800270E0,4.748869307E0
2.825655635E0,3.863965988E0,1.553917646E0,4.826164246E-2,4.164999687E0
2.830655635E0,3.308740854E0,6.787399054E-1,-8.239450455E-1,3.476685108E0
2.835655635E0,2.735147476E0,5.841495097E-2,-1.085906029E0,2.943405498E0
2.840655635E0,2.816252708E0,-9.780091047E-2,-1.124561310E0,3.034053802E0
2.845655635E0,2.669295311E0,-2.265210152E-1,-1.039228439E0,2.873403031E0
2.850655635E0,2.459205389E0,-5.225363970E-1,-8.786087036E-1,2.663210222E0
2.855655635E0,1.848606110E0,-7.789523602E-1,-8.283576965E-1,2.170319746E0
2.860655635E0,1.324722648E0,-8.497697115E-1,-9.091186523E-1,1.817552029E0
2.865655635E0,6.868768930E-1,-7.337264419E-1,-8.882274628E-1,1.341306223E0
2.870655635E0,-4.117155075E-2,-3.860085905E-1,-6.868419647E-1,7.889547598E-1
2.875655635E0,-6.644744873E-1,1.328315139E-1,-2.988185883E-1,7.405829488E-1
2.880655635E0,-1.246262312E0,6.214193106E-1,2.791223526E-1,1.420296095E0
2.885655635E0,-1.906419158E0,9.583235979E-1,8.457307816E-1,2.295229548E0
2.890655635E0,-2.783751011E0,1.018607736E0,1.471581459E0,3.309438532E0
2.895655635E0,-3.723704815E0,8.409932852E-1,1.987030983E0,4.303665807E0
2.900655635E0,-4.517201424E0,5.577191710E-1,2.335739136E0,5.115841738E0
2.905655635E0,-5.131942749E0,2.208591104E-1,2.598790169E0,5.756676599E0
2.910655635E0,-5.488483906E0,-1.340842843E-1,2.833067894E0,6.178001932E0
2.915655635E0,-5.544448376E0,-5.004501343E-1,2.940129280E0,6.295690455E0
2.920655635E0,-5.395532131E0,-8.128998280E-1,2.966458321E0,6.210672112E0
2.925655635E0,-4.968039036E0,-1.005869031E0,3.043004036E0,5.912111123E0
2.930655635E0,-4.156548977E0,-1.022952080E0,3.339192390E0,5.428953506E0
2.935655635E0,-3.522974014E0,-1.104359388E0,3.888216972E0,5.361826814E0
2.940655635E0,-3.041626930E0,-1.157536626E0,4.712503433E0,5.727047584E0
2.945655635E0,-2.720044613E0,-1.209784269E0,5.678759575E0,6.411749448E0
2.950655635E0,-2.334320068E0,-1.421875715E0,6.620465279E0,7.162495462E0
2.955655635E0,-2.088539839E0,-1.853355408E0,7.479410172E0,7.983639611E0
2.960655635E0,-1.832926154E0,-2.325583458E0,8.220591545E0,8.737624509E0
2.965655635E0,-1.824568391E0,-2.693982124E0,8.592714310E0,9.188108005E0
2.970655635E0,-1.769571781E0,-2.926621437E0,7.692133904E0,8.418160210E0
2.975655635E0,-1.519426346E0,-2.906070232E0,3.645758629E0,4.903616685E0
2.980655635E0,-1.473330498E0,-2.555931568E0,-2.193770409E0,3.676427280E0
2.985655635E0,-1.661211967E0,-2.083824873E0,-5.651990891E0,6.248756062E0
2.990655635E0,-2.148680449E0,-1.640247822E0,-5.947098255E0,6.532627208E0
2.995655635E0,-2.928088665E0,-1.230966806E0,-4.910078049E0,5.847892693E0
3.000655635E0,-3.803851604E0,-8.221874237E-1,-4.036314487E0,5.606880936E0
3.005655635E0,-4.627247334E0,-3.824634552E-1,-3.763756752E0,5.976919028E0
3.010655635E0,-4.936761856E0,-1.291907020E-2,-3.257098675E0,5.914429499E0
3.015655635E0,-3.832353830E0,3.336305022E-1,-3.346891403E-1,3.861380843E0
3.020655635E0,-1.650361538E0,6.329647899E-1,4.394952297E0,4.737081731E0
3.025655635E0,-5.736393929E-1,8.508793116E-1,7.175928593E0,7.248931571E0
3.030655635E0,-1.332721710E0,9.422940016E-1,6.677363873E0,6.873954715E0
3.035655635E0,-3.234205723E0,8.769566417E-1,4.314849377E0,5.463246723E0
3.040655635E0,-4.916446686E0,7.168757319E-1,2.115454674E0,5.400046973E0
3.045655635E0,-5.640231609E0,5.450899005E-1,1.116144180E0,5.775388596E0
3.050655635E0,-5.548894405E0,3.759379983E-1,1.357473850E0,5.724883733E0
3.055655635E0,-4.714955807E0,1.821122468E-1,2.476850510E0,5.329048844E0
3.060655635E0,-3.522023201E0,-4.410967231E-2,3.808115005E0,5.187324261E0
3.065655635E0,-2.479223728E0,-3.200869858E-1,4.938879490E0,5.535479798E0
3.070655635E0,-2.066419601E0,-5.986357331E-1,5.295410156E0,5.715752219E0
3.075655635E0,-2.453910828E0,-8.578975797E-1,4.935726166E0,5.578445966E0
3.080655635E0,-3.454934120E0,-1.055747509E0,3.962526083E0,5.362162394E0
3.085655635E0,-4.695809364E0,-1.135176659E0,2.943610907E0,5.657216347E0
3.090655635E0,-5.653304100E0,-1.110882163E0,2.251595497E0,6.185756923E0
3.095655635E0,-6.228296280E0,-9.988762140E-1,1.895018697E0,6.586389307E0
3.100655635E0,-6.653482914E0,-7.010151148E-1,1.755068064E0,6.916684248E0
3.105655635E0,-6.792937279E0,-3.247393370E-1,1.564724803E0,6.978382063E0
3.110655635E0,-6.345273495E0,1.744937152E-1,1.331815243E0,6.485882794E0
3.115655635E0,-5.049454689E0,9.494103193E-1,1.046939611E0,5.243515535E0
3.120655635E0,-3.336698532E0,1.818206906E0,6.853297353E-1,3.861231707E0
3.125655635E0,-2.401674271E0,2.168809175E0,5.114077926E-1,3.276173144E0
3.130655635E0,-2.366134644E0,1.847322822E0,5.898180008E-1,3.059261354E0
3.135655635E0,-2.976057053E0,1.003048539E0,1.323040128E0,3.407852276E0
3.140655635E0,-3.481815338E0,6.983752847E-1,2.165766001E0,4.159484158E0
3.145655635E0,-4.287327290E0,6.494834423E-1,2.808515787E0,5.166310575E0
3.150655635E0,-5.511376381E0,4.447028637E-1,3.399047852E0,6.490497404E0
3.155655635E0,-6.660338402E0,2.115714848E-1,3.998935938E0,7.771509426E0
3.160655635E0,-7.457409859E0,1.040619612E-2,4.541248322E0,8.731323291E0
3.165655635E0,-7.877756119E0,-1.547608376E-1,4.997064114E0,9.330254130E0
3.170655635E0,-7.884093761E0,-2.496562004E-1,5.325092316E0,9.517240715E0
3.175655635E0,-7.578984737E0,-2.924712896E-1,5.548734188E0,9.397606089E0
3.180655635E0,-7.191001892E0,-2.889487147E-1,5.698832512E0,9.179906948E0
3.185655635E0,-6.997194767E0,-2.212004066E-1,5.910338879E0,9.161974126E0
3.190655635E0,-7.095211029E0,-4.840349406E-2,6.337526798E0,9.513601230E0
3.195655635E0,-7.056421280E0,7.490786910E-2,7.075508118E0,9.993072980E0
3.200655635E0,-6.662349701E0,1.057580039E-1,7.780579567E0,1.024380333E1
3.205655635E0,-6.046125412E0,1.109073013E-1,8.276227951E0,1.025006742E1
3.210655635E0,-5.438816547E0,1.061206311E-1,8.568381310E0,1.014934211E1
3.215655635E0,-4.846124649E0,8.888418972E-2,8.534169197E0,9.814523340E0
3.220655635E0,-4.324254513E0,8.568183333E-2,7.984130859E0,9.080355943E0
3.225655635E0,-3.863530397E0,6.129257753E-2,5.550323009E0,6.762892090E0
3.230655635E0,-1.360364151E1,-3.691643476E-1,-4.191029739E1,4.406436624E1
3.235655635E0,-3.946245956E1,-5.750104785E-1,-1.057488708E2,1.128735577E2
3.240655635E0,-3.386634827E1,-2.291380405E0,-7.681836700E1,8.398357862E1
3.245655635E0,-1.318313789E1,-7.331411839E-1,-1.958753586E1,2.362211213E1
3.250655635E0,-1.291124582E0,1.048680902E0,1.119575214E1,1.131863951E1
3.255655635E0,-6.138378382E-1,3.230468929E-1,1.133361340E1,1.135482051E1
3.260655635E0,-1.046096325E0,9.347012639E-2,1.008497620E1,1.013951671E1
3.265655635E0,-1.410888433E0,1.254878193E-1,9.841521263E0,9.942931868E0
3.270655635E0,-1.698470116E0,1.698782444E-1,9.816108704E0,9.963415551E0
3.275655635E0,-1.947721958E0,2.169825584E-1,9.718307495E0,9.913939824E0
3.280655635E0,-2.192518473E0,2.404570729E-1,8.762549400E0,9.035885615E0
3.285655635E0,-2.518472672E0,3.217642307E-1,3.740735054E0,4.520988339E0
3.290655635E0,-1.783440828E0,6.205793619E-1,-1.284986496E0,2.284068788E0
3.295655635E0,1.660078049E0,5.822937489E-1,-9.231681824E-1,1.986747249E0
3.300655635E0,1.606677532E0,-1.538181603E-1,3.234961510E0,3.615252230E0
3.305655635E0,-3.041424751E-1,-1.461544335E-1,6.925173759E0,6.933389890E0
3.310655635E0,-1.450515628E0,-1.037075967E-1,8.710476875E0,8.831033815E0
3.315655635E0,-1.509740949E0,-1.987109035E-1,9.119903564E0,9.246158380E0
3.320655635E0,-9.899380207E-1,-2.976311445E-1,9.412999153E0,9.469588937E0
3.325655635E0,-4.678210020E-1,-1.417807937E-1,1.048280716E1,1.049419860E1
3.330655635E0,-4.940307140E-1,2.342307419E-1,1.179299355E1,1.180566081E1
3.335655635E0,-8.969454765E-1,3.999208808E-1,1.211531258E1,1.215505026E1
3.340655635E0,-1.161604524E0,2.616402805E-1,1.131296158E1,1.137545078E1
3.345655635E0,-1.091814041E0,4.848086834E-2,1.021747494E1,1.027575800E1
3.350655635E0,-7.067008615E-1,4.733815789E-3,7.641442776E0,7.674053441E0
3.355655635E0,-2.245014906E0,2.088044405E0,-1.512728500E1,1.543485578E1
3.360655635E0,-9.242440224E0,2.920616388E0,-4.395490265E1,4.501095609E1
3.365655635E0,-8.865089417E0,-8.238187432E-1,-4.028196335E1,4.125415202E1
3.370655635E0,1.053672552E0,-3.761386573E-1,-1.729956818E1,1.733570781E1
3.375655635E0,3.548934937E0,3.438795358E-2,1.480833054E0,3.845645362E0
3.380655635E0,1.823362708E-1,1.288443804E-1,9.441142082E0,9.443781616E0
3.385655635E0,-4.838880301E-1,1.459828466E-1,1.054695225E1,1.055905584E1
3.390655635E0,-4.053145349E-1,1.489663124E-1,9.861010551E0,9.870460979E0
3.395655635E0,-3.776324987E-1,1.655249298E-1,9.652081490E0,9.660884115E0
3.400655635E0,-3.796862364E-1,1.929916739E-1,9.568160057E0,9.577635110E0
3.405655635E0,-3.817050755E-1,1.856141388E-1,8.808876038E0,8.819095669E0
3.410655635E0,-1.411107183E-2,-1.004934162E-1,4.353560448E0,4.354743003E0
3.415655635E0,1.309084654E0,-6.343502998E-1,-2.368381500E0,2.779448482E0
3.420655635E0,2.422848940E0,-9.081827402E-1,-6.165748596E0,6.686661994E0
3.425655635E0,1.763703346E0,-9.663103223E-1,-1.551857758E1,1.564834353E1
3.430655635E0,-2.955330133E0,-4.771780670E-1,-2.274039841E1,2.293659510E1
3.435655635E0,-4.443417549E0,5.085043609E-2,-9.115114212E0,1.014060414E1
3.440655635E0,-2.009671211E0,1.044768095E0,7.777766228E0,8.100862068E0
3.445655635E0,1.231337935E-1,1.101463675E0,1.264228058E1,1.269076997E1
3.450655635E0,9.768596292E-2,2.726366520E-1,1.098281097E1,1.098662870E1
3.455655635E0,-2.111462057E-1,-8.351150900E-2,9.905982971E0,9.908584940E0
3.460655635E0,-3.000257313E-1,-8.592066914E-2,9.510873795E0,9.515992756E0
3.465655635E0,-1.205308557E0,3.513092697E-1,1.047777176E1,1.055271946E1
3.470655635E0,-1.888151050E0,1.452410460E0,3.517646790E0,4.248346674E0
3.475655635E0,7.917599678E-1,3.885309100E-1,-1.973140335E1,1.975110423E1
3.480655635E0,-1.066906452E-1,-8.444371819E-1,-2.590641594E1,2.592039436E1
3.485655635E0,-2.709346533E0,-6.125243306E-1,-1.002517605E1,1.040287938E1
3.490655635E0,-4.127182484E0,7.342564464E-1,6.384174824E0,7.637437788E0
3.495655635E0,-5.084756851E0,1.557320833E0,1.178125763E1,1.292586677E1
3.500655635E0,-5.225378513E0,1.377046108E0,9.588521957E0,1.100638860E1
3.505655635E0,-4.438486576E0,6.781154871E-1,5.298011780E0,6.944705359E0
3.510655635E0,-3.262879133E0,8.868506551E-2,1.477388382E0,3.582865014E0
3.515655635E0,-1.233238727E-1,-3.253097236E-1,-1.345932961E0,1.390169316E0
3.520655635E0,4.924043179E0,-8.633923531E-1,-4.079707146E0,6.452569874E0
3.525655635E0,1.046738434E1,-1.667008519E0,-5.571578979E0,1.197445383E1
3.530655635E0,9.720475197E0,-2.085177183E0,-3.694407463E0,1.060585916E1
3.535655635E0,5.412515163E0,-1.396377921E0,-3.231592178E-1,5.599073457E0
3.540655635E0,2.654867887E0,-3.626343012E-1,2.887322426E0,3.939093541E0
3.545655635E0,2.954426050E0,-1.229088567E-2,3.960718155E0,4.941262253E0
3.550655635E0,3.294543028E0,-1.471451819E-1,2.718795300E0,4.274051163E0
3.555655635E0,2.868561745E0,-2.331067175E-1,3.391170502E-1,2.897927811E0
3.560655635E0,2.554301977E0,-1.859047562E-1,-1.161158562E0,2.811993665E0
3.565655635E0,2.266970873E0,-3.789671361E-1,-1.264709473E0,2.623406770E0
3.570655635E0,2.303999901E0,-8.204740286E-1,-9.147348404E-1,2.611193789E0
3.575655635E0,2.536131620E0,-1.390125751E0,-6.551618576E-1,2.965408953E0
3.580655635E0,2.496831417E0,-1.823707819E0,-4.620351791E-1,3.126268357E0
3.585655635E0,2.073545933E0,-1.976769328E0,-2.382535934E-1,2.874712940E0
3.590655635E0,1.436597824E0,-1.859475374E0,6.325721741E-3,2.349787648E0
3.595655635E0,1.097758889E0,-1.513307691E0,3.126096725E-1,1.895494540E0
3.600655635E0,8.328169584E-1,-1.098386765E0,5.179567337E-1,1.472520543E0
3.605655635E0,6.400959492E-1,-6.872935295E-1,4.474534988E-1,1.040341220E0
3.610655635E0,4.941300750E-1,-4.230371714E-1,1.027650833E-1,6.585481317E-1
3.615655635E0,4.280560315E-1,-3.010196388E-1,-1.442966461E-1,5.428317521E-1
3.620655635E0,5.560863018E-1,-1.849850118E-1,-7.105159760E-2,5.903386818E-1
3.625655635E0,7.326929569E-1,-2.018749118E-1,1.768245697E-1,7.802944172E-1
3.630655635E0,1.173089623E0,-3.594165742E-1,3.952627182E-1,1.289012085E0
3.635655635E0,1.922260284E0,-4.966568947E-1,6.030750275E-1,2.074958352E0
3.640655635E0,2.720351458E0,-5.629315376E-1,7.857322693E-1,2.886967123E0
3.645655635E0,3.365090609E0,-5.943692923E-1,7.048807144E-1,3.489121162E0
3.650655635E0,3.636076927E0,-6.613572240E-1,3.508081436E-1,3.712346314E0
3.655655635E0,3.646719933E0,-8.220224977E-1,-1.349735260E-1,3.740655705E0
3.660655635E0,3.569168329E0,-1.115495563E0,-2.559490204E-1,3.748173264E0
3.665655635E0,3.329107523E0,-1.462754250E0,5.457782745E-2,3.636699827E0
3.670655635E0,2.808316231E0,-1.904113531E0,3.418388367E-1,3.410152809E0
3.675655635E0,2.253238201E0,-2.413817167E0,3.480863571E-1,3.320355376E0
3.680655635E0,1.809646606E0,-2.892707348E0,2.179107666E-1,3.419073229E0
3.685655635E0,1.575038791E0,-3.458161116E0,1.948461533E-1,3.804942906E0
3.690655635E0,1.654425740E0,-4.134957314E0,2.362422943E-1,4.459911091E0
3.695655635E0,1.733236551E0,-4.875113010E0,2.793550491E-1,5.181590012E0
3.700655635E0,1.475285530E0,-5.449318886E0,3.648939133E-1,5.657268889E0
3.705655635E0,6.348024607E-1,-5.936300755E0,4.404449463E-2,5.970308261E0
3.710655635E0,-5.161557794E-1,-6.127889156E0,-4.857177734E-1,6.168740881E0
3.715655635E0,-1.646644115E0,-6.122658730E0,-6.350126266E-1,6.371940662E0
3.720655635E0,-2.398369789E0,-5.952582359E0,-4.040765762E-1,6.430294882E0
3.725655635E0,-2.543431044E0,-5.620234966E0,-1.050949097E-3,6.168961311E0
3.730655635E0,-2.575809479E0,-5.217800140E0,3.491764069E-1,5.829421664E0
3.735655635E0,-2.522110939E0,-4.818411350E0,5.444507599E-1,5.465762358E0
3.740655635E0,-2.412177324E0,-4.381011963E0,5.030794144E-1,5.026425585E0
3.745655635E0,-2.453403234E0,-3.998618841E0,4.625186920E-1,4.714028384E0
3.750655635E0,-2.378636599E0,-3.744344711E0,4.065818787E-1,4.454586200E0
3.755655635E0,-2.120291233E0,-3.595353842E0,2.473220825E-1,4.181312279E0
3.760655635E0,-1.921657681E0,-3.452121973E0,1.265621185E-2,3.950958686E0
3.765655635E0,-1.712030888E0,-3.339084387E0,4.136943817E-2,3.752631841E0
3.770655635E0,-1.548098564E0,-3.307903767E0,2.751789093E-1,3.662589238E0
3.775655635E0,-1.401886940E0,-3.359487534E0,2.451944351E-1,3.648501582E0
3.780655635E0,-1.103399158E0,-3.418353796E0,6.937408447E-2,3.592693299E0
3.785655635E0,-5.943182111E-1,-3.438015699E0,1.758050919E-1,3.493432913E0
3.790655635E0,-3.221871853E-1,-3.408001661E0,3.990364075E-1,3.446376352E0
3.795655635E0,-1.712817848E-1,-3.340272903E0,3.645153046E-1,3.364466069E0
3.800655635E0,-8.226380497E-2,-3.300525427E0,1.180677414E-1,3.303660912E0
3.805655635E0,-1.447537541E-2,-3.367784262E0,-1.941013336E-2,3.367871304E0
3.810655635E0,3.705312610E-1,-3.334715128E0,-5.389595032E-2,3.355670302E0
3.815655635E0,8.386293650E-1,-3.347295046E0,1.030740738E-1,3.452290196E0
3.820655635E0,1.141222119E0,-3.447262764E0,3.181838989E-1,3.645167964E0
3.825655635E0,1.167832494E0,-3.644261360E0,2.107582092E-1,3.832609114E0
3.830655635E0,1.048985243E0,-3.739058495E0,9.891510010E-3,3.883429709E0
3.835655635E0,8.553895354E-1,-3.770449638E0,-9.486103058E-2,3.867425545E0
3.840655635E0,7.952334881E-1,-3.729202747E0,-7.768726349E-2,3.813841206E0
3.845655635E0,8.609238267E-1,-3.686551332E0,3.890419006E-2,3.785942960E0
3.850655635E0,9.315381050E-1,-3.752337217E0,2.140626907E-1,3.872159691E0
3.855655635E0,7.863258719E-1,-3.995631933E0,3.048734665E-1,4.083666337E0
3.860655635E0,3.565847576E-1,-4.172250271E0,3.045206070E-1,4.198518526E0
3.865655635E0,-1.833364218E-1,-4.341296196E0,1.422281265E-1,4.347492811E0
3.870655635E0,-7.084344625E-1,-4.445852280E0,2.224912643E-1,4.507436549E0
3.875655635E0,-9.412577152E-1,-4.426987171E0,3.586454391E-1,4.540133043E0
3.880655635E0,-8.654757142E-1,-4.365809441E0,3.471298218E-1,4.464284870E0
3.885655635E0,-6.283260584E-1,-4.360062599E0,9.262371063E-2,4.406077468E0
3.890655635E0,-3.647184968E-1,-4.402169704E0,-3.922080994E-2,4.417426396E0
3.895655635E0,-8.182594180E-2,-4.468503952E0,1.077156067E-1,4.470550940E0
3.900655635E0,3.203742206E-1,-4.640337944E0,2.422256470E-1,4.657687102E0
3.905655635E0,5.335716009E-1,-4.637879848E0,3.371629715E-1,4.680631048E0
3.910655635E0,6.563211679E-1,-4.481631279E0,2.013397217E-1,4.533907154E0
3.915655635E0,5.610167980E-1,-4.290118217E0,-9.590339661E-2,4.327707433E0
3.920655635E0,4.570073783E-1,-4.231552601E0,-2.163743973E-1,4.261655903E0
3.925655635E0,3.050881326E-1,-4.321078777E0,-2.374992371E-1,4.338341441E0
3.930655635E0,9.050309658E-2,-4.411956787E0,-2.242174149E-1,4.418577480E0
3.935655635E0,-3.685688972E-1,-4.653161049E0,-1.220159531E-1,4.669329574E0
3.940655635E0,-8.877648711E-1,-4.786210537E0,-7.863235474E-2,4.868482394E0
3.945655635E0,-1.252631783E0,-4.907181740E0,3.209114075E-3,5.064536436E0
3.950655635E0,-1.579425097E0,-4.801017284E0,8.706188202E-2,5.054891727E0
3.955655635E0,-2.125833750E0,-4.547244549E0,2.182006836E-2,5.019669136E0
3.960655635E0,-2.907999992E0,-4.223268986E0,-9.007263184E-2,5.128408911E0
3.965655635E0,-3.942512274E0,-3.840586662E0,-9.239101410E-2,5.504729334E0
3.970655635E0,-5.048572063E0,-3.518809795E0,1.247987747E-1,6.155134198E0
3.975655635E0,-5.527200699E0,-4.033539772E0,9.426870346E-1,6.907101382E0
3.980655635E0,-5.816932678E0,-4.720332623E0,1.774144173E0,7.698430580E0
3.985655635E0,-6.699034691E0,-4.438036919E0,1.048958778E0,8.103922013E0
3.990655635E0,-7.941436291E0,-3.750492811E0,-4.937601089E-1,8.796385947E0
3.995655635E0,-8.605448723E0,-3.129410267E0,-1.711277008E0,9.315332809E0
4.000655635E0,-8.291491508E0,-2.649933338E0,-1.846982002E0,8.898444844E0
4.005655635E0,-7.522542477E0,-2.213868141E0,-5.836210251E-1,7.863235400E0
4.010655635E0,-6.198950768E0,-2.059719086E0,2.430763245E-1,6.536705549E0
4.015655635E0,-5.311283112E0,-1.863482237E0,5.094442368E-1,5.651710163E0
4.020655635E0,-4.772406101E0,-1.445866942E0,1.515464783E-1,4.988923486E0
4.025655635E0,-4.388235092E0,-8.991382122E-1,8.400917053E-3,4.479411493E0
4.030655635E0,-4.217034817E0,-4.029029906E-1,1.886796951E-1,4.240437889E0
4.035655635E0,-3.975785255E0,-8.386531472E-2,4.228019714E-1,3.999082807E0
4.040655635E0,-3.742917299E0,8.678565919E-2,5.924301147E-1,3.790505916E0
4.045655635E0,-3.626195669E0,1.623435318E-1,5.107564926E-1,3.665586263E0
4.050655635E0,-3.578460693E0,2.191762626E-1,2.307500839E-1,3.592584692E0
4.055655635E0,-3.493849754E0,2.567184567E-1,-3.731918335E-2,3.503467310E0
4.060655635E0,-3.379482508E0,3.128441870E-1,-7.987976074E-2,3.394871762E0
4.065655635E0,-3.173205614E0,3.388102651E-1,1.347837448E-1,3.194087181E0
4.070655635E0,-2.905522585E0,3.514103889E-1,5.221414566E-1,2.972908080E0
4.075655635E0,-2.722562551E0,3.367642462E-1,7.510433197E-1,2.844261428E0
4.080655635E0,-2.591573954E0,3.099948764E-1,6.480550766E-1,2.689298749E0
4.085655635E0,-2.483098269E0,2.748848498E-1,2.778396606E-1,2.513669344E0
4.090655635E0,-2.332268953E0,2.476608455E-1,-9.552192688E-2,2.347325884E0
4.095655635E0,-2.113915443E0,1.944600344E-1,-2.147073746E-1,2.133671124E0
4.100655635E0,-1.762324572E0,1.413041204E-1,-9.714126587E-2,1.770647106E0
4.105655635E0,-1.267024398E0,1.374393702E-1,1.603803635E-1,1.284508570E0
4.110655635E0,-3.891735375E-1,1.100515574E-1,3.510217667E-1,5.355218653E-1
4.115655635E0,2.732044756E-1,8.597001433E-2,4.605979919E-1,5.423855078E-1
4.120655635E0,3.089447916E-1,5.169241875E-2,4.254989624E-1,5.283638494E-1
4.125655635E0,6.850663573E-2,4.220244288E-2,3.200826645E-1,3.300410845E-1
4.130655635E0,-9.095363319E-2,8.129708469E-2,2.103443146E-1,2.431594334E-1
4.135655635E0,-4.287118092E-2,4.694115371E-2,1.062335968E-1,1.238022098E-1
4.140655635E0,1.264007576E-2,-1.291768253E-2,5.470466614E-2,5.761283307E-2
4.145655635E0,3.334331140E-2,1.579076797E-2,2.821922302E-2,4.644835106E-2
4.150655635E0,9.308710694E-3,6.509899348E-2,-2.022647858E-2,6.880146425E-2
4.155655635E0,-4.283497855E-2,2.230276912E-2,3.528594971E-3,4.842210116E-2
4.160655635E0,-1.332264394E-3,4.538454488E-2,9.350872040E-2,1.039490867E-1
4.165655635E0,8.972359449E-2,7.366884500E-2,2.519474030E-1,2.774074909E-1
4.170655635E0,-5.397740752E-3,7.583133876E-2,5.706110001E-1,5.756530560E-1
4.175655635E0,-1.612389684E-1,1.325386465E-1,6.658420563E-1,6.977894680E-1
4.180655635E0,-8.305570483E-2,1.003677398E-1,4.183235168E-1,4.381398156E-1
4.185655635E0,2.161175758E-2,-3.571945429E-2,3.608989716E-2,5.518539804E-2
4.190655635E0,4.383869469E-2,-6.448876858E-2,-2.316522598E-1,2.444246344E-1
4.195655635E0,-1.859798282E-2,-3.685016185E-2,-2.885303497E-1,2.914679778E-1
4.200655635E0,-1.662597433E-2,-3.942541033E-2,-1.182518005E-1,1.257548183E-1
4.205655635E0,7.870301604E-2,-3.684012592E-2,1.209783554E-1,1.489534225E-1
4.210655635E0,1.575850099E-1,-4.562827200E-2,2.712593079E-1,3.170119661E-1
4.215655635E0,1.463341415E-1,-3.782684356E-2,2.620038986E-1,3.024741211E-1
4.220655635E0,3.261552379E-2,-3.308977932E-2,1.385288239E-1,1.461127678E-1
4.225655635E0,-4.305946082E-2,-1.067135483E-2,3.495025635E-2,5.647579480E-2
4.230655635E0,-5.439177901E-2,1.945281029E-2,-2.736186981E-2,6.391830232E-2
4.235655635E0,-1.401065290E-2,3.054233640E-2,4.644393921E-3,3.392201501E-2
4.240655635E0,5.722270161E-2,3.636506200E-2,7.270145416E-2,9.941004351E-2
4.245655635E0,1.009651423E-1,9.388042241E-2,1.629018784E-1,2.134116108E-1
4.250655635E0,8.383963257E-2,1.420141160E-1,2.106189728E-1,2.675022333E-1
4.255655635E0,5.186647177E-3,1.721284986E-1,2.097377777E-1,2.713762273E-1
4.260655635E0,-1.587346941E-2,2.162459791E-1,1.886911392E-1,2.874345778E-1
4.265655635E0,1.785030961E-2,2.562204301E-1,1.195306778E-1,2.832933556E-1
4.270655635E0,6.481361389E-2,2.287538350E-1,1.017742157E-1,2.586254290E-1
4.275655635E0,1.996320039E-1,2.380348444E-1,1.421794891E-1,3.416555740E-1
4.280655635E0,5.404354334E-1,3.216347694E-1,2.060079575E-1,6.617844522E-1
4.285655635E0,9.460482597E-1,3.854802251E-1,2.248468399E-1,1.046020275E0
4.290655635E0,1.451592803E0,3.984553516E-1,1.029033661E-1,1.508799999E0
4.295655635E0,1.808995605E0,3.593024909E-1,2.083396912E-2,1.844450442E0
4.300655635E0,1.979226470E0,2.532284856E-1,3.255939484E-2,1.995625766E0
4.305655635E0,1.924975395E0,5.386247113E-2,1.410713196E-1,1.930889058E0
4.310655635E0,1.530112743E0,-2.190979272E-1,2.875375748E-1,1.572236231E0
4.315655635E0,5.679231286E-1,-6.590509415E-1,3.413295746E-1,9.345537448E-1
4.320655635E0,-1.326485872E0,-1.223675251E0,-3.970623016E-2,1.805137799E0
4.325655635E0,-4.129777908E0,-1.539817572E0,-3.592224121E-1,4.422119906E0
4.330655635E0,-6.374721050E0,-1.375253797E0,-4.864940643E-1,6.539500589E0
4.335655635E0,-6.581544876E0,-1.053058386E0,-5.338783264E-1,6.686605341E0
4.340655635E0,-4.978103161E0,-9.065668583E-1,-5.134191513E-1,5.085958491E0
4.345655635E0,-3.131881475E0,-1.054371476E0,-4.510650635E-1,3.335242192E0
4.350655635E0,-2.091735601E0,-1.459840059E0,-3.980798721E-1,2.581658074E0
4.355655635E0,-1.981701851E0,-1.943744302E0,-4.030370712E-1,2.804946170E0
4.360655635E0,-2.227912903E0,-2.318012953E0,-5.193634033E-1,3.256765005E0
4.365655635E0,-2.360739470E0,-2.438498497E0,-6.841659546E-1,3.462289534E0
4.370655635E0,-2.410134077E0,-2.285905600E0,-1.023187637E0,3.475776693E0
4.375655635E0,-2.552003622E0,-1.866072297E0,-1.424055099E0,3.467402664E0
4.380655635E0,-2.951428175E0,-1.221769452E0,-1.718053818E0,3.627031539E0
4.385655635E0,-4.116576672E0,-3.514204621E-1,-2.149435043E0,4.657227806E0
4.390655635E0,-5.051706314E0,4.973306060E-1,-2.449393272E0,5.636186815E0
4.395655635E0,-5.957051754E0,1.167956948E0,-2.765474319E0,6.670714898E0
4.400655635E0,-6.766918659E0,1.656883955E0,-3.188339233E0,7.661720410E0
4.405655635E0,-7.573943615E0,1.877931833E0,-3.351767540E0,8.492678935E0
4.410655635E0,-8.648943901E0,2.044602156E0,-3.587770462E0,9.584191435E0
4.415655635E0,-9.320872307E0,1.896222472E0,-3.666748047E0,1.019408463E1
4.420655635E0,-9.523378372E0,1.227824450E0,-3.165780067E0,1.011061086E1
4.425655635E0,-9.697170258E0,2.844267488E-1,-2.650697708E0,1.005694824E1
4.430655635E0,-9.003729820E0,-8.405985832E-1,-2.270902634E0,9.323666415E0
4.435655635E0,-5.625551224E0,-2.159330606E0,-1.015089989E0,6.110641777E0
4.440655635E0,-3.000374317E0,-3.368007183E0,-3.590984344E-1,4.524894487E0
4.445655635E0,-2.912620068E0,-4.322488785E0,9.941101074E-3,5.212232130E0
4.450655635E0,-3.743363857E0,-4.525918961E0,3.271169662E-1,5.882492747E0
4.455655635E0,-3.165137291E0,-4.293659687E0,7.746515274E-1,5.390147732E0
4.460655635E0,-1.825291753E0,-3.657526255E0,8.071260452E-1,4.166610222E0
4.465655635E0,1.323407292E-1,-2.841650724E0,-3.802204132E-2,2.844984813E0
4.470655635E0,1.734188914E0,-2.216404438E0,-1.231666565E0,3.071947648E0
4.475655635E0,2.916027308E0,-1.841035604E0,-2.266151428E0,4.126508167E0
4.480655635E0,3.592352390E0,-1.569865942E0,-3.153692245E0,5.031426195E0
4.485655635E0,3.863640785E0,-1.316568732E0,-3.721406937E0,5.523580626E0
4.490655635E0,3.817510605E0,-1.080645561E0,-4.117938042E0,5.718268598E0
4.495655635E0,3.422406673E0,-7.615430951E-1,-4.529180527E0,5.727677677E0
4.500655635E0,2.704298973E0,-4.280336201E-1,-4.842612267E0,5.563033280E0
4.505655635E0,1.724783421E0,-1.740558147E-1,-5.073210716E0,5.361216303E0
4.510655635E0,5.648605824E-1,-6.250900030E-2,-5.252824783E0,5.283478310E0
4.515655635E0,-7.703219652E-1,-5.099448562E-2,-5.368241310E0,5.423468552E0
4.520655635E0,-2.193366051E0,-9.514534473E-2,-5.295886040E0,5.732915159E0
4.525655635E0,-3.601703644E0,-2.069400549E-1,-5.077521324E0,6.228668888E0
4.530655635E0,-4.738112450E0,-2.655253410E-1,-4.915772438E0,6.832644580E0
4.535655635E0,-5.470176697E0,-1.643943191E-1,-5.020110130E0,7.426396455E0
4.540655635E0,-6.057113647E0,-6.330996752E-2,-5.429139137E0,8.134382931E0
4.545655635E0,-6.401462555E0,-3.040611744E-3,-5.813451767E0,8.647251213E0
4.550655635E0,-6.622323990E0,4.711282253E-2,-6.022100449E0,8.951150119E0
4.555655635E0,-6.685279369E0,1.145637631E-1,-6.086606026E0,9.041728707E0
4.560655635E0,-6.605093956E0,1.336899996E-1,-6.246272087E0,9.091812480E0
4.565655635E0,-6.294534683E0,1.823181510E-1,-6.621535301E0,9.137786194E0
4.570655635E0,-6.018527985E0,2.066079378E-1,-7.128294945E0,9.331556931E0
4.575655635E0,-5.783427715E0,1.597350836E-1,-7.627931595E0,9.573865042E0
4.580655635E0,-5.526595116E0,-4.532229900E-2,-7.881761551E0,9.626394591E0
4.585655635E0,-5.358503819E0,-4.543296099E-1,-7.822176933E0,9.492440705E0
4.590655635E0,-5.211758137E0,-9.620206356E-1,-7.771512032E0,9.406609689E0
4.595655635E0,-4.936511040E0,-1.370759368E0,-7.989528656E0,9.491084798E0
4.600655635E0,-4.583745480E0,-1.670148373E0,-8.348698616E0,9.669585658E0
4.605655635E0,-4.141091347E0,-1.847153306E0,-8.603551865E0,9.725313237E0
4.610655635E0,-3.588904381E0,-1.859712958E0,-8.697758675E0,9.591129908E0
4.615655635E0,-3.082386017E0,-1.791572571E0,-8.654495239E0,9.360081393E0
4.620655635E0,-2.583076477E0,-1.682265520E0,-8.527920723E0,9.067950883E0
4.625655635E0,-2.018899918E0,-1.545904636E0,-8.344923973E0,8.723733956E0
4.630655635E0,-1.321056366E0,-1.442873955E0,-8.062780380E0,8.296716376E0
4.635655635E0,-4.793863297E-1,-1.346832752E0,-7.667662621E0,7.799796137E0
4.640655635E0,3.401069641E-1,-1.218375444E0,-7.331172943E0,7.439503222E0
4.645655635E0,1.015327692E0,-9.602753520E-1,-7.169089317E0,7.304030443E0
4.650655635E0,1.629739523E0,-7.138358951E-1,-6.995102882E0,7.217830487E0
4.655655635E0,2.194168568E0,-7.119186521E-1,-6.650290489E0,7.039003300E0
4.660655635E0,2.535231113E0,-9.798039794E-1,-6.363806725E0,6.919931262E0
4.665655635E0,2.770067692E0,-1.316976428E0,-6.160143852E0,6.881502322E0
4.670655635E0,2.963568687E0,-1.604367375E0,-5.781536102E0,6.692002222E0
4.675655635E0,3.030023098E0,-1.840401173E0,-5.160633087E0,6.261010327E0
4.680655635E0,3.019980431E0,-1.982083321E0,-4.525743484E0,5.790620880E0
4.685655635E0,3.069808245E0,-1.943477869E0,-4.006191254E0,5.408363639E0
4.690655635E0,3.169366837E0,-1.811200738E0,-3.575776100E0,5.109942170E0
4.695655635E0,3.140769482E0,-1.636700630E0,-3.172692299E0,4.754913071E0
4.700655635E0,2.944765568E0,-1.502579451E0,-2.752546310E0,4.301848492E0
4.705655635E0,2.550791740E0,-1.465273380E0,-2.369522095E0,3.777327036E0
4.710655635E0,1.993985653E0,-1.478359818E0,-1.981357574E0,3.176051696E0
4.715655635E0,1.391726494E0,-1.583517075E0,-1.588253021E0,2.639503101E0
4.720655635E0,9.023351669E-1,-1.712056398E0,-1.336455345E0,2.351905346E0
4.725655635E0,4.988923073E-1,-1.796469450E0,-1.043332577E0,2.136524955E0
4.730655635E0,1.204586029E-1,-1.855820656E0,-7.369794846E-1,2.000429789E0
4.735655635E0,-2.798447609E-1,-2.093323231E0,-3.490524292E-1,2.140596374E0
4.740655635E0,-7.934608459E-1,-2.504037857E0,1.026620865E-1,2.628749742E0
4.745655635E0,-1.215833187E0,-2.952352524E0,2.621421814E-1,3.203647029E0
4.750655635E0,-1.153981209E0,-3.279865026E0,1.908426285E-1,3.482184391E0
4.755655635E0,-5.319113731E-1,-3.334714651E0,-1.075077057E-2,3.376887190E0
4.760655635E0,2.125806808E-1,-2.989809513E0,-1.893639565E-1,3.003333178E0
4.765655635E0,4.350938797E-1,-2.319659710E0,-3.572726250E-1,2.387000541E0
4.770655635E0,2.289237976E-1,-1.507671118E0,-7.173347473E-1,1.685244031E0
4.775655635E0,1.159267426E-1,-9.056710005E-1,-1.373160839E0,1.649014755E0
4.780655635E0,3.993525505E-1,-7.318511009E-1,-2.048883438E0,2.212015334E0
4.785655635E0,8.106884956E-1,-9.783562422E-1,-2.512105465E0,2.815150199E0
4.790655635E0,1.356396198E0,-1.355667591E0,-2.810465813E0,3.402405524E0
4.795655635E0,2.191815853E0,-1.702298641E0,-3.043877125E0,4.119109776E0
4.800655635E0,2.752743244E0,-2.120566845E0,-3.309129238E0,4.798409677E0
4.805655635E0,3.203698635E0,-2.437262297E0,-3.581255436E0,5.387886686E0
4.810655635E0,3.563546181E0,-2.673011303E0,-3.775708199E0,5.839505391E0
4.815655635E0,3.939356804E0,-2.893542290E0,-3.812902927E0,6.199140888E0
4.820655635E0,4.138066769E0,-3.182334900E0,-3.860748768E0,6.492783151E0
4.825655635E0,4.457902908E0,-3.401463985E0,-4.070620060E0,6.929127164E0
4.830655635E0,4.887486458E0,-3.484783411E0,-4.284323692E0,7.374731778E0
4.835655635E0,5.320459843E0,-3.395959377E0,-4.452452660E0,7.724258393E0
4.840655635E0,5.648504257E0,-3.192668438E0,-4.589128017E0,7.947252862E0
4.845655635E0,5.706062794E0,-2.983731031E0,-4.717831135E0,7.982464162E0
4.850655635E0,5.497014046E0,-2.755069971E0,-4.780136585E0,7.788278355E0
4.855655635E0,5.225736141E0,-2.572362661E0,-4.742748737E0,7.511260444E0
4.860655635E0,4.984808922E0,-2.490500689E0,-4.548696995E0,7.193160503E0
4.865655635E0,4.698826790E0,-2.471298933E0,-4.387599468E0,6.887475641E0
4.870655635E0,4.324238300E0,-2.496723175E0,-4.254457951E0,6.559960057E0
4.875655635E0,3.982989788E0,-2.573839426E0,-4.067507267E0,6.247677361E0
4.880655635E0,3.797397614E0,-2.718573570E0,-3.913260460E0,6.092985994E0
4.885655635E0,3.817863464E0,-2.916808844E0,-3.680430889E0,6.052224946E0
4.890655635E0,3.917458057E0,-3.094328880E0,-3.428058147E0,6.055817989E0
4.895655635E0,3.938036919E0,-3.278108835E0,-3.129884243E0,6.004190843E0
4.900655635E0,3.936460018E0,-3.461850166E0,-2.787285805E0,5.937094088E0
4.905655635E0,4.082166195E0,-3.678191662E0,-2.344041824E0,5.973918883E0
4.910655635E0,4.197715759E0,-3.881816149E0,-1.745154381E0,5.977865674E0
4.915655635E0,4.146447182E0,-4.017146111E0,-1.130385399E0,5.882878399E0
4.920655635E0,3.863202572E0,-4.059161186E0,-6.393995285E-1,5.640031507E0
4.925655635E0,3.518090248E0,-4.013652325E0,-2.224864960E-1,5.341897062E0
4.930655635E0,3.255913734E0,-3.926000595E0,1.086497307E-1,5.101593837E0
4.935655635E0,3.089235783E0,-3.828769207E0,4.046092033E-1,4.936249585E0
4.940655635E0,2.992402077E0,-3.618714809E0,6.062984467E-1,4.734676849E0
4.945655635E0,2.756000519E0,-3.344306469E0,6.376132965E-1,4.380236904E0
4.950655635E0,2.351641178E0,-3.040227652E0,5.623149872E-1,3.884507504E0
4.955655635E0,2.089652061E0,-2.764842272E0,3.446679115E-1,3.482785451E0
4.960655635E0,2.031933784E0,-2.656218052E0,9.833765030E-2,3.345731540E0
4.965655635E0,2.134445190E0,-2.750816345E0,-2.008399963E-1,3.487575596E0
4.970655635E0,2.291686058E0,-2.879029274E0,-4.789261818E-1,3.710795715E0
4.975655635E0,2.585021973E0,-2.885771036E0,-7.274827957E-1,3.941984816E0
4.980655635E0,2.631429195E0,-2.777996540E0,-9.376730919E-1,3.939659276E0
4.985655635E0,2.426960468E0,-2.663053989E0,-1.191931248E0,3.795088110E0
4.990655635E0,2.158557892E0,-2.643308163E0,-1.324431419E0,3.660678735E0
4.995655635E0,1.817143440E0,-2.819681644E0,-1.419759750E0,3.642572251E0
5.000655635E0,1.425904274E0,-3.141900778E0,-1.577619076E0,3.793893178E0
5.005655635E0,1.215433121E0,-3.444219828E0,-2.028957367E0,4.178109128E0
5.010655635E0,1.584319592E0,-3.617008209E0,-2.475494862E0,4.660567751E0
5.015655635E0,2.242012024E0,-3.656215668E0,-2.541172504E0,4.985186919E0
5.020655635E0,2.684694767E0,-3.660976410E0,-2.423335552E0,5.146152880E0
5.025655635E0,2.698596954E0,-3.618718624E0,-2.366881371E0,5.097026332E0
5.030655635E0,2.377537727E0,-3.615195274E0,-2.420519829E0,4.957947031E0
5.035655635E0,1.886800766E0,-3.693690300E0,-2.468292475E0,4.826575691E0
5.040655635E0,1.599491119E0,-3.852065325E0,-2.067249537E0,4.655136921E0
5.045655635E0,1.430499077E0,-3.982025862E0,-1.582398176E0,4.517393226E0
5.050655635E0,1.152920723E0,-3.998385906E0,-1.328284502E0,4.368140997E0
5.055655635E0,8.461513519E-1,-3.949528217E0,-1.080611706E0,4.181204002E0
5.060655635E0,6.959543228E-1,-3.970570564E0,-7.450435162E-1,4.099374692E0
5.065655635E0,7.081975937E-1,-4.053650856E0,-3.933997154E-1,4.133810885E0
5.070655635E0,8.298368454E-1,-4.144613266E0,-1.721620560E-1,4.230376826E0
5.075655635E0,1.015436172E0,-4.210849762E0,-2.648591995E-3,4.331555535E0
5.080655635E0,1.255335808E0,-4.263406754E0,9.895110130E-2,4.445480453E0
5.085655635E0,1.430025101E0,-4.272563934E0,6.862068176E-2,4.506049618E0
5.090655635E0,1.557918549E0,-4.272810936E0,-6.601643562E-2,4.548448270E0
5.095655635E0,1.734926224E0,-4.297740459E0,-1.785845757E-1,4.638149902E0
5.100655635E0,1.855565071E0,-4.403942108E0,-3.073861599E-1,4.788769579E0
5.105655635E0,1.534909248E0,-4.666172028E0,-3.926701546E-1,4.927808604E0
5.110655635E0,8.650074005E-1,-4.987267971E0,-4.838426113E-1,5.084799238E0
5.115655635E0,1.612939835E-1,-5.169733047E0,-6.325626373E-1,5.210786027E0
5.120655635E0,-1.431531906E-1,-5.234672546E0,-7.467777729E-1,5.289609300E0
5.125655635E0,-6.013584137E-2,-5.328558922E0,-7.815020084E-1,5.385898429E0
5.130655635E0,4.245338440E-1,-5.528244495E0,-8.079497814E-1,5.603079424E0
5.135655635E0,1.033740997E0,-5.838731766E0,-8.965878487E-1,5.996939124E0
5.140655635E0,1.682594299E0,-6.144894600E0,-1.005597353E0,6.449967384E0
5.145655635E0,2.209368229E0,-6.302042961E0,-1.015993834E0,6.754946108E0
5.150655635E0,2.686958313E0,-6.359766006E0,-9.288794994E-1,6.966289239E0
5.155655635E0,3.187257767E0,-6.478663921E0,-8.770499229E-1,7.273301509E0
5.160655635E0,3.421958923E0,-6.722550392E0,-9.074988365E-1,7.597765513E0
5.165655635E0,3.268800735E0,-7.091082573E0,-8.543174267E-1,7.854830907E0
5.170655635E0,2.763936996E0,-7.568619728E0,-6.371037960E-1,8.082651394E0
5.175655635E0,2.153599739E0,-8.145531654E0,-3.407967091E-1,8.432308116E0
5.180655635E0,1.988501072E0,-8.570442200E0,-9.200370312E-2,8.798584016E0
5.185655635E0,2.134215355E0,-8.829273224E0,4.098272324E-2,9.083645767E0
5.190655635E0,2.400068283E0,-9.144727707E0,3.450883627E-1,9.460732454E0
5.195655635E0,2.593517303E0,-9.490163803E0,8.640345335E-1,9.876036487E0
5.200655635E0,2.499822140E0,-9.843367577E0,1.573075533E0,1.027694325E1
5.205655635E0,2.302089691E0,-1.020766830E1,2.401540995E0,1.073608440E1
5.210655635E0,2.451878071E0,-1.045413399E1,3.159167290E0,1.119289781E1
5.215655635E0,3.029049873E0,-1.056396770E1,3.787513256E0,1.162401882E1
5.220655635E0,3.899316788E0,-1.055912971E1,4.094018459E0,1.197751556E1
5.225655635E0,4.779089451E0,-1.037971592E1,4.232577324E0,1.218576667E1
5.230655635E0,5.451675415E0,-1.001189613E1,4.416288853E0,1.222548307E1
5.235655635E0,5.902465343E0,-9.596791267E0,4.739187717E0,1.222282291E1
5.240655635E0,6.158011436E0,-9.333238602E0,5.039941788E0,1.226505038E1
5.245655635E0,6.237574577E0,-9.293468475E0,5.306220055E0,1.238676165E1
5.250655635E0,6.227441788E0,-9.344477654E0,5.543879032E0,1.252337369E1
5.255655635E0,6.172885895E0,-9.319122314E0,5.668111801E0,1.253307833E1
5.260655635E0,6.079398155E0,-9.173423767E0,5.687772274E0,1.238795944E1
5.265655635E0,5.819514275E0,-8.934057236E0,5.715548515E0,1.209758736E1
5.270655635E0,5.457435131E0,-8.749011993E0,5.750041008E0,1.180642963E1
5.275655635E0,5.301791191E0,-8.629434586E0,5.640544891E0,1.159275109E1
5.280655635E0,5.491249084E0,-8.531378746E0,5.366437435E0,1.147766921E1
5.285655635E0,5.809936523E0,-8.401180267E0,5.062760353E0,1.140029538E1
5.290655635E0,6.111580372E0,-8.190646172E0,4.799993038E0,1.129061701E1
5.295655635E0,6.329817772E0,-7.966929436E0,4.554335594E0,1.114811779E1
5.300655635E0,6.515907764E0,-7.764412880E0,4.283824921E0,1.100428632E1
5.305655635E0,6.774816990E0,-7.603257179E0,3.912626505E0,1.090945971E1
5.310655635E0,6.946297169E0,-7.416680336E0,3.467304945E0,1.073687083E1
5.315655635E0,6.928021431E0,-7.215965748E0,3.033659220E0,1.045326413E1
5.320655635E0,6.646353722E0,-6.940206528E0,2.764423370E0,9.999126012E0
5.325655635E0,6.229465961E0,-6.597553730E0,2.650128126E0,9.452890588E0
5.330655635E0,5.789558887E0,-6.342522621E0,2.603990078E0,8.973703229E0
5.335655635E0,5.407434940E0,-6.207277298E0,2.529529095E0,8.612151969E0
5.340655635E0,5.128572941E0,-6.209417820E0,2.318898201E0,8.380717090E0
5.345655635E0,4.759004116E0,-6.257994175E0,1.965589404E0,8.103959093E0
5.350655635E0,4.175217152E0,-6.253973007E0,1.670781851E0,7.702994783E0
5.355655635E0,3.587716341E0,-6.217179298E0,1.464291573E0,7.325924978E0
5.360655635E0,3.355052948E0,-6.144454956E0,1.379600525E0,7.135405006E0
5.365655635E0,3.451784134E0,-6.040485382E0,1.474392176E0,7.111688242E0
5.370655635E0,3.667135715E0,-5.946106911E0,1.687772274E0,7.186977598E0
5.375655635E0,3.697421074E0,-5.915480614E0,1.955719948E0,7.244906763E0
5.380655635E0,3.547197104E0,-5.961350441E0,2.226927042E0,7.285568641E0
5.385655635E0,3.406159401E0,-6.140972137E0,2.395801783E0,7.419792911E0
5.390655635E0,3.357818127E0,-6.404180527E0,2.464862108E0,7.639634546E0
5.395655635E0,3.356369972E0,-6.599779129E0,2.593214512E0,7.845193780E0
5.400655635E0,3.326639652E0,-6.749584675E0,2.878612757E0,8.056664078E0
5.405655635E0,3.364687443E0,-6.904999256E0,3.229230642E0,8.332350620E0
5.410655635E0,3.547545910E0,-7.080441475E0,3.530415535E0,8.670730495E0
5.415655635E0,3.848665476E0,-7.201178551E0,3.654422283E0,8.945613489E0
5.420655635E0,4.101111412E0,-7.242657661E0,3.726587772E0,9.119356405E0
5.425655635E0,4.327575684E0,-7.265507221E0,3.884520054E0,9.306180878E0
5.430655635E0,4.556952953E0,-7.242590427E0,4.157169342E0,9.513306116E0
5.435655635E0,4.780785561E0,-7.130082130E0,4.538334846E0,9.710327746E0
5.440655635E0,5.050368786E0,-6.995207310E0,4.940511703E0,9.942223397E0
5.445655635E0,5.361686707E0,-6.897031307E0,5.278506279E0,1.020682878E1
5.450655635E0,5.644518375E0,-6.818499565E0,5.522854805E0,1.043333356E1
5.455655635E0,5.963532448E0,-6.727764606E0,5.657705307E0,1.062243688E1
5.460655635E0,6.236386776E0,-6.641148567E0,5.651059151E0,1.072062703E1
5.465655635E0,6.359241009E0,-6.565058231E0,5.500422001E0,1.066745415E1
5.470655635E0,6.307874203E0,-6.516041756E0,5.293641090E0,1.050098629E1
5.475655635E0,6.225659370E0,-6.589115620E0,4.990128517E0,1.034778536E1
5.480655635E0,5.983132839E0,-6.745936394E0,4.677573681E0,1.015801319E1
5.485655635E0,5.548085213E0,-6.873973846E0,4.467045784E0,9.898851651E0
5.490655635E0,5.154578209E0,-6.941439152E0,4.337419510E0,9.672975861E0
5.495655635E0,4.800053120E0,-6.929239273E0,4.336123466E0,9.479284444E0
5.500655635E0,4.593134880E0,-6.879967690E0,4.503272057E0,9.418614689E0
5.505655635E0,4.419032574E0,-6.831285954E0,4.596282959E0,9.344524263E0
5.510655635E0,4.054671288E0,-6.741130829E0,4.903018475E0,9.269454907E0
5.515655635E0,3.851614952E0,-6.649605274E0,5.376984119E0,9.378920314E0
5.520655635E0,3.960863590E0,-6.533549309E0,5.820551872E0,9.604922230E0
5.525655635E0,4.201352596E0,-6.347788811E0,6.319618225E0,9.893602020E0
5.530655635E0,4.774540901E0,-6.207007408E0,6.768880367E0,1.035088997E1
5.535655635E0,5.383792877E0,-5.992412090E0,7.160839558E0,1.077830467E1
5.540655635E0,5.807617188E0,-5.739387035E0,7.366571903E0,1.099706154E1
5.545655635E0,6.070188999E0,-5.465456486E0,7.704483986E0,1.122842298E1
5.550655635E0,6.339953423E0,-5.330847263E0,7.987875938E0,1.150735000E1
5.555655635E0,6.824057579E0,-5.551409721E0,8.117383003E0,1.196987128E1
5.560655635E0,7.032543659E0,-5.736886024E0,8.363766670E0,1.234184445E1
5.565655635E0,7.150919437E0,-5.868623257E0,8.667160034E0,1.267659461E1
5.570655635E0,7.251512051E0,-5.899468422E0,8.919888496E0,1.292101256E1
5.575655635E0,7.452230453E0,-5.799123764E0,8.991599083E0,1.303895813E1
5.580655635E0,7.568867207E0,-5.564170837E0,8.861318588E0,1.291397363E1
5.585655635E0,7.404809952E0,-5.286630154E0,8.742481232E0,1.261787014E1
5.590655635E0,7.003199100E0,-4.995959282E0,8.778055191E0,1.229059233E1
5.595655635E0,6.649680614E0,-4.739176750E0,9.044010162E0,1.218491561E1
5.600655635E0,6.380574703E0,-4.584096909E0,9.320239067E0,1.218985374E1
5.605655635E0,6.114338875E0,-4.501239777E0,9.666488647E0,1.229175749E1
5.610655635E0,5.960869312E0,-4.397444725E0,9.943010330E0,1.239890872E1
5.615655635E0,6.154301167E0,-4.291029453E0,1.016295433E1,1.263226018E1
5.620655635E0,6.537137032E0,-4.086510181E0,1.028666782E1,1.285493139E1
5.625655635E0,6.740567684E0,-3.722123146E0,1.024934578E1,1.281945952E1
5.630655635E0,6.698191166E0,-3.341368198E0,1.007212162E1,1.254902946E1
5.635655635E0,6.454041004E0,-3.103457928E0,9.780179977E0,1.212179924E1
5.640655635E0,6.022085190E0,-3.056829929E0,9.431639671E0,1.160023906E1
5.645655635E0,5.615948200E0,-3.146172523E0,9.115906715E0,1.115961608E1
5.650655635E0,5.455068111E0,-3.255015373E0,8.895372391E0,1.093071558E1
5.655655635E0,5.477748394E0,-3.274096012E0,8.739241600E0,1.082126499E1
5.660655635E0,5.573688507E0,-3.095941067E0,8.691054344E0,1.077892760E1
5.665655635E0,5.694399357E0,-2.837023735E0,8.712084770E0,1.078773882E1
5.670655635E0,5.812120438E0,-2.648517132E0,8.723311424E0,1.081163952E1
5.675655635E0,5.849150658E0,-2.564840555E0,8.733463287E0,1.081962807E1
5.680655635E0,5.765854836E0,-2.555309057E0,8.772106171E0,1.080391286E1
5.685655635E0,5.700360298E0,-2.526158333E0,8.819207191E0,1.080064808E1
5.690655635E0,5.784001350E0,-2.550658226E0,8.912921906E0,1.092706300E1
5.695655635E0,6.013675690E0,-2.565267086E0,9.111984253E0,1.121486280E1
5.700655635E0,6.301409721E0,-2.576762676E0,9.311394691E0,1.153471029E1
5.705655635E0,6.633921623E0,-2.555041075E0,9.543186188E0,1.189998124E1
5.710655635E0,6.928637505E0,-2.454340458E0,9.757991791E0,1.221671840E1
5.715655635E0,7.020732880E0,-2.306241512E0,9.802035332E0,1.227555851E1
5.720655635E0,6.901384354E0,-2.276217937E0,9.523731232E0,1.197963817E1
5.725655635E0,6.703554153E0,-2.304998875E0,8.981044769E0,1.144158307E1
5.730655635E0,6.504531860E0,-2.415385723E0,8.255885124E0,1.078437120E1
5.735655635E0,6.489132881E0,-2.603276253E0,7.619673729E0,1.034143706E1
5.740655635E0,6.828527451E0,-2.757306814E0,7.137830734E0,1.025573769E1
5.745655635E0,7.491161346E0,-2.804712772E0,6.799794197E0,1.049862435E1
5.750655635E0,8.218901634E0,-2.752166748E0,6.578169823E0,1.088104242E1
5.755655635E0,8.474376678E0,-2.633355856E0,6.382675171E0,1.093106424E1
5.760655635E0,8.060310364E0,-2.629981518E0,6.142839432E0,1.046995140E1
5.765655635E0,7.422449112E0,-2.675210476E0,5.790523052E0,9.786708289E0
5.770655635E0,6.845632553E0,-2.746578932E0,5.471678734E0,9.183988733E0
5.775655635E0,6.331462860E0,-2.907423973E0,5.303526878E0,8.756022696E0
5.780655635E0,5.797727585E0,-3.122661591E0,5.365660667E0,8.494408452E0
5.785655635E0,5.270338058E0,-3.403867722E0,5.614472389E0,8.419327700E0
5.790655635E0,4.937399864E0,-3.739147663E0,5.911087036E0,8.561547326E0
5.795655635E0,4.891496658E0,-4.085993290E0,6.192439079E0,8.886415615E0
5.800655635E0,4.937149048E0,-4.369023323E0,6.378392220E0,9.173205155E0
5.805655635E0,4.874246597E0,-4.637384892E0,6.520864487E0,9.369380565E0
5.810655635E0,4.682505608E0,-5.064169407E0,6.593391418E0,9.541723164E0
5.815655635E0,4.618021011E0,-5.578937531E0,6.506458282E0,9.735741441E0
5.820655635E0,4.655911446E0,-6.055480003E0,6.403457165E0,9.967477771E0
5.825655635E0,4.658220291E0,-6.493336678E0,6.257976532E0,1.015010876E1
5.830655635E0,4.710742950E0,-6.993997097E0,6.020682335E0,1.036126007E1
5.835655635E0,4.799349785E0,-7.500706196E0,5.790258408E0,1.062174393E1
5.840655635E0,5.022250175E0,-7.842598915E0,5.558826923E0,1.084573240E1
5.845655635E0,5.610237122E0,-8.067473412E0,5.305400848E0,1.116719150E1
5.850655635E0,6.401971817E0,-8.242280960E0,5.111822128E0,1.162115158E1
5.855655635E0,6.868335724E0,-8.268322945E0,5.046960831E0,1.187480583E1
5.860655635E0,6.909627914E0,-8.090131760E0,5.057964325E0,1.178033076E1
5.865655635E0,6.701648712E0,-8.050825119E0,5.085586548E0,1.164435791E1
5.870655635E0,6.424617767E0,-8.276654243E0,5.068406582E0,1.163904911E1
5.875655635E0,6.027687073E0,-8.755712509E0,5.037487984E0,1.176315426E1
5.880655635E0,5.533142090E0,-9.381960869E0,4.912301064E0,1.194853769E1
5.885655635E0,5.185017586E0,-9.801571846E0,4.607393265E0,1.200763468E1
5.890655635E0,5.115846634E0,-1.011413765E1,4.023088932E0,1.202717389E1
5.895655635E0,5.521111488E0,-1.041208076E1,3.100154877E0,1.218626514E1
5.900655635E0,6.372921944E0,-1.048807240E1,1.993154526E0,1.243328041E1
5.905655635E0,7.390867233E0,-1.019162846E1,9.642367363E-1,1.262632019E1
5.910655635E0,8.374321938E0,-9.694885254E0,6.871128082E-2,1.281111975E1
5.915655635E0,9.164456367E0,-9.064657211E0,-6.635839939E-1,1.290719236E1
5.920655635E0,9.941519737E0,-8.405837059E0,-1.219834805E0,1.307592858E1
5.925655635E0,1.074769783E1,-7.827995777E0,-1.677509785E0,1.340166279E1
5.930655635E0,1.156780434E1,-7.286609173E0,-2.163442612E0,1.384157702E1
5.935655635E0,1.220893383E1,-6.678438187E0,-2.783496618E0,1.419180944E1
5.940655635E0,1.239496422E1,-5.927935123E0,-3.511876583E0,1.418128450E1
5.945655635E0,1.217632389E1,-5.252196789E0,-4.323582172E0,1.394782411E1
5.950655635E0,1.169119072E1,-4.922658920E0,-5.168513298E0,1.369781154E1
5.955655635E0,1.116276455E1,-4.879738331E0,-5.946793556E0,1.355667777E1
5.960655635E0,1.055105114E1,-4.750916004E0,-6.411334991E0,1.322879811E1
5.965655635E0,9.817641258E0,-4.550639153E0,-6.613831520E0,1.268215928E1
5.970655635E0,9.266946793E0,-4.286389828E0,-6.632384300E0,1.217530132E1
5.975655635E0,9.268963814E0,-4.016402721E0,-6.441408157E0,1.198068946E1
5.980655635E0,9.672469139E0,-3.816891193E0,-5.947434902E0,1.197903584E1
5.985655635E0,1.018045712E1,-3.711161613E0,-5.160473824E0,1.200187142E1
5.990655635E0,1.056492233E1,-3.704377890E0,-4.307452202E0,1.199558852E1
5.995655635E0,1.079646778E1,-3.819591999E0,-3.563437700E0,1.199379372E1
6.000655635E0,1.095178604E1,-3.824686050E0,-2.904201508E0,1.195843749E1
6.005655635E0,1.103472137E1,-3.749138355E0,-2.321494579E0,1.188320038E1
6.010655635E0,1.120031261E1,-3.752004385E0,-1.783567429E0,1.194594711E1
6.015655635E0,1.157688236E1,-3.842031717E0,-1.374917746E0,1.227500761E1
6.020655635E0,1.205867004E1,-3.889218330E0,-1.006665230E0,1.271026819E1
6.025655635E0,1.255541897E1,-3.887353420E0,-6.564226151E-1,1.315982343E1
6.030655635E0,1.314277744E1,-3.816365957E0,-2.703609467E-1,1.368832872E1
6.035655635E0,1.365719509E1,-3.734354019E0,1.258940697E-1,1.415910403E1
6.040655635E0,1.386055374E1,-3.812003136E0,3.534832001E-1,1.437954340E1
6.045655635E0,1.370041084E1,-4.017928600E0,4.255609512E-1,1.428377085E1
6.050655635E0,1.312004089E1,-4.246961594E0,1.736841202E-1,1.379138579E1
6.055655635E0,1.237632275E1,-4.575810432E0,-4.933023453E-1,1.320434599E1
6.060655635E0,1.167670441E1,-4.868559837E0,-1.267677307E0,1.271437401E1
6.065655635E0,1.081694984E1,-5.041808605E0,-1.869081974E0,1.207972290E1
6.070655635E0,9.561904907E0,-5.139916897E0,-2.427684546E0,1.112395718E1
6.075655635E0,7.931383610E0,-5.180416107E0,-3.088118553E0,9.963936632E0
6.080655635E0,6.518550873E0,-5.213524818E0,-3.830066204E0,9.183776655E0
6.085655635E0,5.630710602E0,-5.151207924E0,-4.394636631E0,8.806399723E0
6.090655635E0,5.228073120E0,-4.854701996E0,-4.522662163E0,8.447209779E0
6.095655635E0,4.912732124E0,-4.418960094E0,-4.345590591E0,7.908622056E0
6.100655635E0,4.470567703E0,-4.019152641E0,-4.000798225E0,7.221215271E0
6.105655635E0,4.119097710E0,-3.765932083E0,-3.660910606E0,6.674689271E0
6.110655635E0,3.976670265E0,-3.588562965E0,-3.432836056E0,6.362079372E0
6.115655635E0,3.866413593E0,-3.472217321E0,-3.337521553E0,6.176123163E0
6.120655635E0,4.016810894E0,-3.384093761E0,-3.286212444E0,6.195647874E0
6.125655635E0,4.203875542E0,-3.231734276E0,-3.227629185E0,6.207597454E0
6.130655635E0,4.193786621E0,-3.069622517E0,-3.263297081E0,6.136736629E0
6.135655635E0,3.961731434E0,-3.087105274E0,-3.424534321E0,6.078895479E0
6.140655635E0,3.599085331E0,-3.248981476E0,-3.640603065E0,6.063273582E0
6.145655635E0,3.347085953E0,-3.393800497E0,-3.858460426E0,6.132583717E0
6.150655635E0,3.216668606E0,-3.551201344E0,-4.161800861E0,6.346540342E0
6.155655635E0,3.078467607E0,-3.512789965E0,-4.435470104E0,6.441277140E0
6.160655635E0,2.796583652E0,-3.315157413E0,-4.663949966E0,6.368954238E0
6.165655635E0,2.572413445E0,-3.175041676E0,-4.903805733E0,6.383221071E0
6.170655635E0,2.411650419E0,-3.218710899E0,-5.142270565E0,6.528330886E0
6.175655635E0,2.290641308E0,-3.306111097E0,-5.286452293E0,6.642588806E0
6.180655635E0,2.292299509E0,-3.261433601E0,-5.140035629E0,6.504733080E0
6.185655635E0,2.377336264E0,-3.070498466E0,-4.724687576E0,6.115746989E0
6.190655635E0,2.462404013E0,-2.929759502E0,-4.372353077E0,5.810713871E0
6.195655635E0,2.515872955E0,-2.891885281E0,-4.216474056E0,5.698356840E0
6.200655635E0,2.638034344E0,-2.843778133E0,-4.204025745E0,5.720151374E0
6.205655635E0,2.784560204E0,-2.785651207E0,-4.265119553E0,5.805589804E0
6.210655635E0,2.793789864E0,-2.672212124E0,-4.442709923E0,5.889282715E0
6.215655635E0,2.831894398E0,-2.495206833E0,-4.547775745E0,5.909987077E0
6.220655635E0,2.926397800E0,-2.283192635E0,-4.531983852E0,5.857956156E0
6.225655635E0,3.092228889E0,-2.023694515E0,-4.489828110E0,5.815133313E0
6.230655635E0,3.280136347E0,-1.698484898E0,-4.259168625E0,5.637788820E0
6.235655635E0,3.470717430E0,-1.457044601E0,-3.712926388E0,5.287218627E0
6.240655635E0,3.589259386E0,-1.594553471E0,-3.097398758E0,5.001925907E0
6.245655635E0,3.520668745E0,-1.907183647E0,-2.574465275E0,4.760286685E0
6.250655635E0,3.442598104E0,-2.150346756E0,-2.127042770E0,4.582552108E0
6.255655635E0,3.574918270E0,-2.266414642E0,-1.842891216E0,4.616592250E0
6.260655635E0,3.935026169E0,-2.151290417E0,-1.686703682E0,4.791393400E0
6.265655635E0,4.379418373E0,-1.879329681E0,-1.722722530E0,5.067440997E0
6.270655635E0,4.763212204E0,-1.615072727E0,-1.828213692E0,5.351543302E0
6.275655635E0,5.116974354E0,-1.508801937E0,-1.832372665E0,5.640700259E0
6.280655635E0,5.364417076E0,-1.526932240E0,-1.717802048E0,5.836037740E0
6.285655635E0,5.275614262E0,-1.645861626E0,-1.798898220E0,5.811798442E0
6.290655635E0,4.790332317E0,-1.747864723E0,-2.173905849E0,5.543300591E0
6.295655635E0,4.184103489E0,-1.845184326E0,-2.837441444E0,5.381682000E0
6.300655635E0,3.780241489E0,-2.069006443E0,-3.559923172E0,5.589639199E0
6.305655635E0,3.532669544E0,-2.427418232E0,-4.103298187E0,5.933731490E0
6.310655635E0,3.350248098E0,-2.613903522E0,-4.197975636E0,5.973244795E0
6.315655635E0,3.117955923E0,-2.714144707E0,-3.931412220E0,5.704755268E0
6.320655635E0,2.913457394E0,-2.749568462E0,-3.209181786E0,5.132953190E0
6.325655635E0,2.732099771E0,-2.787056923E0,-2.183931351E0,4.472316133E0
6.330655635E0,2.705414295E0,-2.862187386E0,-1.241554737E0,4.129508603E0
6.335655635E0,2.681439638E0,-2.816929579E0,-5.626721382E-1,3.929606942E0
6.340655635E0,2.724701643E0,-2.688169241E0,-1.126098633E-1,3.829221056E0
6.345655635E0,2.905008316E0,-2.634389400E0,6.749057770E-2,3.922197829E0
6.350655635E0,3.001774788E0,-2.596322536E0,-1.021590233E-1,3.970135899E0
6.355655635E0,2.975759029E0,-2.465209484E0,-5.678548813E-1,3.905746890E0
6.360655635E0,2.859613657E0,-2.269673824E0,-9.410305023E-1,3.770192030E0
6.365655635E0,2.941521168E0,-2.051606178E0,-1.090246677E0,3.748369313E0
6.370655635E0,3.278926134E0,-1.883173704E0,-1.164064407E0,3.956355108E0
6.375655635E0,3.543506622E0,-1.882349014E0,-1.186891556E0,4.184302637E0
6.380655635E0,3.466056585E0,-2.179607868E0,-1.038355350E0,4.224028947E0
6.385655635E0,2.846584082E0,-2.652212381E0,-7.564420700E-1,3.963518141E0
6.390655635E0,2.016239166E0,-3.038769245E0,-2.360262871E-1,3.654455816E0
6.395655635E0,1.017733574E0,-3.220298290E0,6.775007248E-1,3.444576888E0
6.400655635E0,5.564975739E-2,-3.243762493E0,1.827097893E0,3.723355841E0
6.405655635E0,-5.336456299E-1,-3.278802395E0,2.946904659E0,4.440672232E0
6.410655635E0,-7.600808144E-1,-3.270307064E0,3.767660618E0,5.046572864E0
6.415655635E0,-7.883930206E-1,-3.213972330E0,4.200111389E0,5.347159748E0
6.420655635E0,-8.627395630E-1,-3.169701338E0,4.343321800E0,5.445711192E0
6.425655635E0,-8.134346008E-1,-3.144117355E0,4.201332569E0,5.310211404E0
6.430655635E0,-6.166424751E-1,-2.967211485E0,4.018879414E0,5.033486235E0
6.435655635E0,-4.158673286E-1,-2.614570618E0,3.732723713E0,4.576259550E0
6.440655635E0,-3.765249252E-1,-2.267771006E0,3.372323513E0,4.081313787E0
6.445655635E0,-5.640759468E-1,-1.981818199E0,2.755435467E0,3.440669943E0
6.450655635E0,-8.072786331E-1,-1.927882910E0,1.899751186E0,2.824444348E0
6.455655635E0,-9.281482697E-1,-2.155134439E0,1.148623466E0,2.612546560E0
6.460655635E0,-1.050420761E0,-2.462986708E0,7.486886978E-1,2.780327690E0
6.465655635E0,-1.297507763E0,-2.703450441E0,7.409915924E-1,3.088889643E0
6.470655635E0,-1.546315670E0,-2.781110525E0,7.748122215E-1,3.275057539E0
6.475655635E0,-1.844049931E0,-2.719187021E0,8.525633812E-1,3.394313262E0
6.480655635E0,-2.190494061E0,-2.601881742E0,1.052326679E0,3.560259017E0
6.485655635E0,-2.435492516E0,-2.521378517E0,1.377771378E0,3.766593605E0
6.490655635E0,-2.204028606E0,-2.566768885E0,1.795282364E0,3.830023939E0
6.495655635E0,-1.579878330E0,-2.624335051E0,2.501328468E0,3.954717955E0
6.500655635E0,-1.187260151E0,-2.736463308E0,3.233428001E0,4.399190237E0
6.505655635E0,-1.372396946E0,-2.816960812E0,3.631988525E0,4.796882554E0
6.510655635E0,-1.807860851E0,-2.848504543E0,3.702792168E0,5.009292248E0
6.515655635E0,-2.008265972E0,-2.803872585E0,3.658870697E0,5.028137674E0
6.520655635E0,-1.825888634E0,-2.654264927E0,3.719628334E0,4.920835960E0
6.525655635E0,-1.462748051E0,-2.453511477E0,3.729727745E0,4.697895218E0
6.530655635E0,-1.105655193E0,-2.250141144E0,3.489583015E0,4.296835835E0
6.535655635E0,-1.003746033E0,-2.094658136E0,3.101588249E0,3.874912705E0
6.540655635E0,-1.127592564E0,-1.949830651E0,2.630515099E0,3.463078723E0
6.545655635E0,-1.250164509E0,-1.801805496E0,2.127479553E0,3.055418727E0
6.550655635E0,-1.367059469E0,-1.651553273E0,1.664630890E0,2.714309453E0
6.555655635E0,-1.293102980E0,-1.480093479E0,1.285864830E0,2.348667789E0
6.560655635E0,-5.760369301E-1,-1.397527814E0,1.044424057E0,1.837314384E0
6.565655635E0,5.335566998E-1,-1.328761101E0,9.943656921E-1,1.743287683E0
6.570655635E0,1.495844960E0,-1.248037457E0,1.013600349E0,2.196027165E0
6.575655635E0,1.950471044E0,-1.151999950E0,9.218215942E-1,2.445648427E0
6.580655635E0,2.024222374E0,-1.022490978E0,6.789579391E-1,2.367265913E0
6.585655635E0,2.009342670E0,-9.761986732E-1,4.634389877E-1,2.281490196E0
6.590655635E0,1.876895905E0,-9.364893436E-1,2.138957977E-1,2.108435899E0
6.595655635E0,1.629242659E0,-8.986945152E-1,-1.488189697E-1,1.866609375E0
6.600655635E0,1.367836237E0,-8.780906200E-1,-6.558990479E-1,1.752775704E0
6.605655635E0,1.224442959E0,-8.260350227E-1,-1.369334221E0,2.014117828E0
6.610655635E0,1.260207415E0,-8.149797916E-1,-2.033511162E0,2.527346916E0
6.615655635E0,1.304995537E0,-7.223963737E-1,-2.463451385E0,2.879837252E0
6.620655635E0,1.239542365E0,-5.943470001E-1,-2.701127052E0,3.030808635E0
6.625655635E0,9.626221657E-1,-5.087840557E-1,-2.928714752E0,3.124559609E0
6.630655635E0,5.918239951E-1,-4.431512356E-1,-3.141979694E0,3.227797246E0
6.635655635E0,3.342909813E-1,-4.750325680E-1,-3.111529350E0,3.165283763E0
6.640655635E0,2.670473456E-1,-6.209058762E-1,-2.777704239E0,2.858754839E0
6.645655635E0,1.399098039E-1,-7.236554623E-1,-2.388640404E0,2.499770981E0
6.650655635E0,-9.557145834E-2,-7.591540813E-1,-2.071420670E0,2.208219286E0
6.655655635E0,-3.813660741E-1,-7.778871059E-1,-1.747360229E0,1.950337459E0
6.660655635E0,-5.575055480E-1,-7.632460594E-1,-1.372002602E0,1.666057659E0
6.665655635E0,-4.219722748E-1,-7.015650272E-1,-8.271560669E-1,1.163804643E0
6.670655635E0,8.323490620E-4,-6.312046051E-1,-2.079372406E-1,6.645734289E-1
6.675655635E0,4.303544164E-1,-5.824115276E-1,3.216180801E-1,7.923675288E-1
6.680655635E0,6.649191976E-1,-5.413453579E-1,7.157964706E-1,1.116931924E0
6.685655635E0,7.055411339E-1,-5.550346375E-1,9.870424271E-1,1.334205566E0
6.690655635E0,8.111206293E-1,-6.204869747E-1,1.170610428E0,1.553463722E0
6.695655635E0,1.139352322E0,-7.339296341E-1,1.269491196E0,1.856982584E0
6.700655635E0,1.390989065E0,-7.428910732E-1,1.302032471E0,2.045000313E0
6.705655635E0,1.240660310E0,-7.411807775E-1,1.468647003E0,2.060463775E0
6.710655635E0,8.576595187E-1,-7.788103819E-1,1.679217339E0,2.040072629E0
6.715655635E0,3.262759447E-1,-8.271540403E-1,1.832657814E0,2.036976795E0
6.720655635E0,-1.886186004E-1,-9.004878998E-1,1.908169746E0,2.118387881E0
6.725655635E0,-8.115924597E-1,-9.602276087E-1,1.831835747E0,2.221787925E0
6.730655635E0,-1.503942013E0,-8.791911602E-1,1.789297104E0,2.497279079E0
6.735655635E0,-2.012044668E0,-7.582254410E-1,1.776267052E0,2.788970098E0
6.740655635E0,-2.408355951E0,-6.675318480E-1,1.836796761E0,3.101547919E0
6.745655635E0,-2.685221434E0,-5.621216297E-1,2.092656136E0,3.450449909E0
6.750655635E0,-2.811530352E0,-5.610615015E-1,2.255021095E0,3.647548912E0
6.755655635E0,-2.610395908E0,-6.375907660E-1,2.185141563E0,3.463456718E0
6.760655635E0,-2.258128643E0,-6.590381861E-1,2.065491676E0,3.130452390E0
6.765655635E0,-2.112850904E0,-6.644051075E-1,2.025540352E0,3.001397476E0
6.770655635E0,-2.178945541E0,-7.135405540E-1,1.906575203E0,2.981941113E0
6.775655635E0,-2.327706337E0,-8.098330498E-1,1.835699081E0,3.073082732E0
6.780655635E0,-2.377126932E0,-9.543874264E-1,1.747612000E0,3.100924945E0
6.785655635E0,-2.203367472E0,-1.193193436E0,1.550362587E0,2.946551025E0
6.790655635E0,-1.916736603E0,-1.408371687E0,1.326687813E0,2.723507034E0
6.795655635E0,-1.662802815E0,-1.564576507E0,1.106388092E0,2.537106119E0
6.800655635E0,-1.499652267E0,-1.637141347E0,9.778127670E-1,2.425965069E0
6.805655635E0,-1.545389771E0,-1.591926098E0,1.020828247E0,2.442242526E0
6.810655635E0,-1.775946140E0,-1.528714657E0,1.163212776E0,2.616107253E0
6.815655635E0,-1.981506824E0,-1.484292746E0,1.317222595E0,2.804383999E0
6.820655635E0,-2.142326117E0,-1.515656471E0,1.393375397E0,2.971240604E0
6.825655635E0,-2.254096508E0,-1.593449593E0,1.397128105E0,3.093864834E0
6.830655635E0,-2.340162516E0,-1.622396231E0,1.341307640E0,3.147639801E0
6.835655635E0,-2.334437370E0,-1.538660288E0,1.267931938E0,3.069971452E0
6.840655635E0,-2.231096268E0,-1.366888762E0,1.198882103E0,2.878105929E0
6.845655635E0,-2.082881689E0,-1.222838640E0,1.118843079E0,2.661867823E0
6.850655635E0,-1.883277416E0,-1.149763107E0,1.045690536E0,2.441753003E0
6.855655635E0,-1.723370194E0,-1.131876707E0,1.101434708E0,2.337585960E0
6.860655635E0,-1.615377188E0,-1.194067001E0,1.277107239E0,2.380387019E0
6.865655635E0,-1.441198349E0,-1.417773724E0,1.219429970E0,2.360962614E0
6.870655635E0,-1.425104499E0,-1.600853682E0,1.008565903E0,2.368725506E0
6.875655635E0,-1.363175631E0,-1.631467581E0,8.902387619E-1,2.304877290E0
6.880655635E0,-7.295390964E-1,-1.691885948E0,8.410701752E-1,2.025365250E0
6.885655635E0,1.575427055E-1,-1.681308746E0,9.439678192E-1,1.934604365E0
6.890655635E0,7.930452824E-1,-1.516263962E0,1.238183022E0,2.112125568E0
6.895655635E0,1.042305827E0,-1.340769053E0,1.522313118E0,2.280679793E0
6.900655635E0,9.428038597E-1,-1.179730892E0,1.714373589E0,2.284670851E0
6.905655635E0,4.875404835E-1,-1.014064789E0,1.805771828E0,2.127636015E0
6.910655635E0,-1.754822731E-1,-9.136505127E-1,1.712412834E0,1.948822466E0
6.915655635E0,-7.192354202E-1,-8.449497223E-1,1.512457848E0,1.875838043E0
6.920655635E0,-1.103907108E0,-7.203226089E-1,1.191739082E0,1.776996794E0
6.925655635E0,-1.524666905E0,-5.157914162E-1,7.491512299E-1,1.775352788E0
6.930655635E0,-2.035209179E0,-2.881131172E-1,3.109378815E-1,2.078886225E0
6.935655635E0,-2.569316626E0,-5.777120590E-2,3.395557404E-2,2.570190346E0
6.940655635E0,-2.948737383E0,3.539514542E-2,-5.669879913E-2,2.949494825E0
6.945655635E0,-3.058986425E0,-6.175422668E-2,-1.786441803E-1,3.064820595E0
6.950655635E0,-3.145039082E0,-2.091627121E-1,-2.167034149E-1,3.159427200E0
6.955655635E0,-3.389239550E0,-2.307362556E-1,-1.781940460E-2,3.397131360E0
6.960655635E0,-3.809464931E0,-1.595087051E-1,4.326376915E-1,3.837270053E0
6.965655635E0,-4.163904190E0,-1.343994141E-1,8.441057205E-1,4.250726500E0
6.970655635E0,-4.280499935E0,-2.532501221E-1,1.153474331E0,4.440418713E0
6.975655635E0,-3.599278212E0,-5.919485092E-1,1.214245319E0,3.844424323E0
6.980655635E0,-1.815168500E0,-1.024314404E0,8.940119743E-1,2.267887583E0
6.985655635E0,-1.031465530E-1,-1.008238792E0,6.502251625E-1,1.204150089E0
6.990655635E0,5.775322914E-1,-4.835309982E-1,6.890873909E-1,1.020875706E0
6.995655635E0,3.131911755E-1,6.726360321E-2,7.448086739E-1,8.107731282E-1
7.000655635E0,-3.752081394E-1,2.860555649E-1,5.625324249E-1,7.342013778E-1
7.005655635E0,-1.127054691E0,2.221527100E-1,2.023029327E-1,1.166417841E0
7.010655635E0,-1.874272823E0,3.458833694E-2,-1.191864014E-1,1.878377057E0
7.015655635E0,-2.523689747E0,-6.309795380E-2,-3.943414688E-1,2.555092265E0
7.020655635E0,-3.091268301E0,-2.306842804E-2,-5.975947380E-1,3.148585608E0
7.025655635E0,-3.774266243E0,8.724451065E-2,-6.265683174E-1,3.826915878E0
7.030655635E0,-4.435552597E0,1.455550194E-1,-4.900941849E-1,4.464919419E0
7.035655635E0,-4.779530048E0,1.561031342E-1,-2.524404526E-1,4.788736979E0
7.040655635E0,-4.660384655E0,1.176743507E-1,-6.409692764E-2,4.662310672E0
7.045655635E0,-4.245054245E0,1.739835739E-2,8.490276337E-2,4.245938851E0
7.050655635E0,-3.689161301E0,-1.004872322E-1,1.513543129E-1,3.693631941E0
7.055655635E0,-3.231954098E0,-1.780381203E-1,1.171216965E-1,3.238972423E0
7.060655635E0,-2.987915993E0,-2.363123894E-1,-2.012872696E-2,2.997313913E0
7.065655635E0,-2.769857407E0,-2.404890060E-1,-2.155995369E-1,2.788624782E0
7.070655635E0,-2.462152004E0,-1.890668869E-1,-3.294582367E-1,2.491281098E0
7.075655635E0,-1.831261635E0,-2.418227196E-1,-5.091528893E-1,1.916046468E0
7.080655635E0,-8.680667877E-1,-4.092102051E-1,-9.366919994E-1,1.341038717E0
7.085655635E0,-2.580127716E-1,-4.931707382E-1,-1.416002035E0,1.521463023E0
7.090655635E0,-4.044508934E-1,-3.622946739E-1,-1.540251970E0,1.633160766E0
7.095655635E0,-1.147331238E0,-1.579542160E-1,-1.287027955E0,1.731403899E0
7.100655635E0,-2.094124079E0,-5.866956711E-2,-9.345421791E-1,2.293941337E0
7.105655635E0,-2.808771610E0,-2.584500313E-1,-6.601223946E-1,2.896852767E0
7.110655635E0,-3.176894665E0,-6.160702705E-1,-5.095188618E-1,3.275944407E0
7.115655635E0,-3.452673435E0,-9.252419472E-1,-2.105662823E-1,3.580693323E0
7.120655635E0,-3.838698387E0,-1.058811188E0,2.451226711E-1,3.989582881E0
7.125655635E0,-4.022641182E0,-1.151048660E0,7.327103615E-1,4.247754650E0
7.130655635E0,-3.851951838E0,-1.260048866E0,1.109644175E0,4.201971716E0
7.135655635E0,-3.725027084E0,-1.339026451E0,1.284490466E0,4.161578351E0
7.140655635E0,-3.932451487E0,-1.461210728E0,1.482257724E0,4.449314492E0
7.145655635E0,-4.154060841E0,-1.552157402E0,1.672218323E0,4.739380570E0
7.150655635E0,-4.045411110E0,-1.674613476E0,1.708731294E0,4.699940848E0
7.155655635E0,-3.409758568E0,-1.851857662E0,1.421488047E0,4.132367186E0
7.160655635E0,-2.427010298E0,-2.007669449E0,7.675839663E-1,3.241959399E0
7.165655635E0,-1.653030872E0,-1.988062859E0,1.286047101E-1,2.588714771E0
7.170655635E0,-1.504391193E0,-1.829766750E0,-2.030446529E-1,2.377491610E0
7.175655635E0,-1.987557411E0,-1.744131565E0,-2.632938623E-1,2.657386505E0
7.180655635E0,-2.598822117E0,-1.801677704E0,-1.557565928E-1,3.166098397E0
7.185655635E0,-3.082631350E0,-1.992822647E0,7.774233818E-3,3.670697288E0
7.190655635E0,-3.516821861E0,-2.281879902E0,3.137644529E-1,4.203981449E0
7.195655635E0,-3.791611195E0,-2.550498962E0,6.998882294E-1,4.622899949E0
7.200655635E0,-3.856609821E0,-2.813620090E0,1.037619472E0,4.885340469E0
7.205655635E0,-4.019860744E0,-3.033327103E0,1.384078979E0,5.222645722E0
7.210655635E0,-4.282270432E0,-3.275171280E0,1.601932883E0,5.624124458E0
7.215655635E0,-4.206231117E0,-3.518983126E0,1.540698767E0,5.696435301E0
7.220655635E0,-3.904942751E0,-3.658282280E0,1.457053900E0,5.545684195E0
7.225655635E0,-3.602659464E0,-3.709869385E0,1.613267541E0,5.417094999E0
7.230655635E0,-3.258034706E0,-3.711009026E0,1.934065700E0,5.303488311E0
7.235655635E0,-2.906561375E0,-3.695194960E0,2.249359369E0,5.211735065E0
7.240655635E0,-2.285558701E0,-3.710683346E0,2.589455128E0,5.069341903E0
7.245655635E0,-1.371088982E0,-3.663520813E0,2.968095064E0,4.910280853E0
7.250655635E0,-3.769688606E-1,-3.489002705E0,3.383179188E0,4.874540677E0
7.255655635E0,5.231986046E-1,-3.293246269E0,3.742523193E0,5.012553004E0
7.260655635E0,1.111844540E0,-3.261755705E0,4.037309170E0,5.308023539E0
7.265655635E0,1.144802570E0,-3.387214661E0,4.169221401E0,5.492376824E0
7.270655635E0,9.699630737E-1,-3.687052965E0,4.068358421E0,5.575547343E0
7.275655635E0,7.571811676E-1,-4.040288448E0,3.808571339E0,5.603790655E0
7.280655635E0,3.793201447E-1,-4.360784531E0,3.297139168E0,5.480096002E0
7.285655635E0,-1.163725853E-1,-4.525522709E0,2.602772236E0,5.221907858E0
7.290655635E0,-9.599781036E-1,-4.536890984E0,1.818660736E0,4.981211161E0
7.295655635E0,-1.965605259E0,-4.564412594E0,1.097522736E0,5.089402963E0
7.300655635E0,-2.783338070E0,-4.709337711E0,6.099252701E-1,5.504256655E0
7.305655635E0,-2.912714958E0,-4.796760559E0,3.467583656E-1,5.622549391E0
7.310655635E0,-2.434040070E0,-4.712089062E0,2.033333778E-1,5.307511550E0
7.315655635E0,-1.501511574E0,-4.463836670E0,2.020664215E-1,4.713937384E0
7.320655635E0,-5.504107475E-1,-4.157667637E0,2.949943542E-1,4.204304204E0
7.325655635E0,9.248733521E-3,-3.843721628E0,5.082602501E-1,3.877190990E0
7.330655635E0,3.629064560E-1,-3.581808329E0,8.206477165E-1,3.692494370E0
7.335655635E0,8.073525429E-1,-3.348956823E0,1.105537891E0,3.617947479E0
7.340655635E0,1.194603920E0,-3.124114275E0,1.318329811E0,3.595158136E0
7.345655635E0,1.567056179E0,-3.003679276E0,1.496983290E0,3.703878134E0
7.350655635E0,2.232084751E0,-2.967334270E0,1.581001282E0,4.035695735E0
7.355655635E0,3.350621700E0,-3.015302658E0,1.244887352E0,4.676372570E0
7.360655635E0,4.655345917E0,-3.038542747E0,7.036590576E-1,5.603581328E0
7.365655635E0,5.596898079E0,-2.981538773E0,4.796051979E-1,6.359627560E0
7.370655635E0,6.295352936E0,-2.727010727E0,7.263011932E-1,6.898954233E0
7.375655635E0,6.914279938E0,-2.386319399E0,1.105646133E0,7.397583437E0
7.380655635E0,6.894268036E0,-1.973226786E0,1.362377167E0,7.299358002E0
7.385655635E0,6.866716385E0,-1.425318480E0,1.904742241E0,7.267143158E0
7.390655635E0,7.063623428E0,-9.170986414E-1,2.605634689E0,7.584535450E0
7.395655635E0,6.730776787E0,-1.022516131E0,3.192417383E0,7.519336682E0
7.400655635E0,6.515383720E0,-1.829466343E0,3.574696064E0,7.653471374E0
7.405655635E0,6.517900467E0,-2.718909502E0,3.469621181E0,7.868530137E0
7.410655635E0,6.658523560E0,-2.892527819E0,3.175580740E0,7.923822702E0
7.415655635E0,6.856677055E0,-2.554642677E0,2.880820990E0,7.863799910E0
7.420655635E0,7.199702263E0,-2.172900677E0,2.486165524E0,7.920746747E0
7.425655635E0,7.764166832E0,-2.010328054E0,1.817510724E0,8.223566788E0
7.430655635E0,8.379138947E0,-1.986983418E0,9.836450815E-1,8.667504268E0
7.435655635E0,8.676164627E0,-1.899354219E0,4.154348373E-2,8.881728714E0
7.440655635E0,8.638652802E0,-1.668564200E0,-8.976078033E-1,8.843988268E0
7.445655635E0,8.627962112E0,-1.457561493E0,-1.833858728E0,8.940316189E0
7.450655635E0,8.289212227E0,-1.272663355E0,-2.775496006E0,8.833690590E0
7.455655635E0,7.725830078E0,-1.132185698E0,-3.734119415E0,8.655284089E0
7.460655635E0,7.139856339E0,-9.962701201E-1,-4.522714615E0,8.510290840E0
7.465655635E0,6.626627922E0,-9.395005703E-1,-5.051473141E0,8.385239402E0
7.470655635E0,6.335356712E0,-9.066336751E-1,-5.332927704E0,8.330597049E0
7.475655635E0,6.135517120E0,-7.857192159E-1,-5.312566280E0,8.153850962E0
7.480655635E0,6.064216614E0,-6.092398167E-1,-5.085616589E0,7.937845575E0
7.485655635E0,6.239605904E0,-5.254471302E-1,-4.670794010E0,7.811855939E0
7.490655635E0,6.460454941E0,-5.348712802E-1,-4.300182819E0,7.779147615E0
7.495655635E0,6.741254807E0,-4.735015035E-1,-4.003448009E0,7.854700249E0
7.500655635E0,6.804659843E0,-3.577341437E-1,-3.933170795E0,7.867731681E0
7.505655635E0,6.778318405E0,-2.155253887E-1,-4.021852970E0,7.884627633E0
7.510655635E0,6.789015770E0,-7.181274891E-2,-4.290482998E0,8.031446728E0
7.515655635E0,6.819067955E0,1.459786296E-2,-4.642778397E0,8.249563147E0
7.520655635E0,6.846261024E0,6.889000535E-2,-5.069244385E0,8.518994922E0
7.525655635E0,6.799118996E0,1.348237395E-1,-5.526382923E0,8.762825159E0
7.530655635E0,6.855275154E0,1.620432734E-1,-5.922055721E0,9.060452496E0
7.535655635E0,6.983222008E0,-7.927060127E-3,-6.238819122E0,9.364203997E0
7.540655635E0,6.970436096E0,-3.421052694E-1,-6.405502319E0,9.472828266E0
7.545655635E0,6.783635139E0,-6.432214975E-1,-6.377227783E0,9.332763460E0
7.550655635E0,6.417907715E0,-8.948913813E-1,-6.246986389E0,9.000844903E0
7.555655635E0,5.764765739E0,-1.164756417E0,-6.271246433E0,8.597541123E0
7.560655635E0,5.119739056E0,-1.393128633E0,-6.450345993E0,8.352215204E0
7.565655635E0,4.650250912E0,-1.598041534E0,-6.636482239E0,8.259628732E0
7.570655635E0,3.041711330E0,-1.336121082E0,-7.357684135E0,8.072963719E0
7.575655635E0,2.253073215E0,-9.561925530E-1,-8.105584145E0,8.467061913E0
7.580655635E0,2.194424629E0,-7.405333519E-1,-8.537522316E0,8.846082545E0
7.585655635E0,2.187398434E0,-6.640443802E-1,-8.787487030E0,9.079955680E0
7.590655635E0,2.059064388E0,-6.223590374E-1,-8.959302902E0,9.213912601E0
7.595655635E0,2.067448616E0,-6.262813807E-1,-8.937663078E0,9.195020035E0
7.600655635E0,2.110630512E0,-7.071117163E-1,-8.838252068E0,9.114245320E0
7.605655635E0,2.123413563E0,-6.867096424E-1,-8.499068260E0,8.787184793E0
7.610655635E0,1.979400635E0,-6.023936272E-1,-8.027486801E0,8.289840125E0
7.615655635E0,1.818483353E0,-5.053119659E-1,-7.606079578E0,7.836751141E0
7.620655635E0,1.689153671E0,-4.736479521E-1,-7.179409981E0,7.390636656E0
7.625655635E0,1.717977047E0,-5.408653021E-1,-6.540061951E0,6.783538216E0
7.630655635E0,1.839889050E0,-6.956405640E-1,-5.747324944E0,6.074607108E0
7.635655635E0,1.739580631E0,-9.609355927E-1,-5.039562225E0,5.417261800E0
7.640655635E0,1.353817463E0,-1.172438860E0,-4.553110123E0,4.892672725E0
7.645655635E0,9.421050549E-1,-1.272575021E0,-4.178386688E0,4.468324567E0
7.650655635E0,4.310350418E-1,-1.352979660E0,-3.879219055E0,4.130942465E0
7.655655635E0,-4.135155678E-2,-1.575039983E0,-3.745872498E0,4.063744784E0
7.660655635E0,-4.963483810E-1,-1.818746209E0,-3.533081055E0,4.004605003E0
7.665655635E0,-9.087018967E-1,-2.029098749E0,-3.642498970E0,4.267409005E0
7.670655635E0,-1.207971096E0,-1.949586153E0,-4.026550293E0,4.633917090E0
7.675655635E0,-1.375993013E0,-1.547165036E0,-4.820143223E0,5.246032511E0
7.680655635E0,-1.212141514E0,-9.427651167E-1,-5.394358635E0,5.608671696E0
7.685655635E0,-5.523859859E-1,-3.550527096E-1,-5.411573410E0,5.451267694E0
7.690655635E0,6.218025684E-1,-1.495020390E-1,-5.423390388E0,5.460966270E0
7.695655635E0,1.671248198E0,-1.009709835E-1,-5.560352325E0,5.806959933E0
7.700655635E0,2.410235405E0,4.670143127E-3,-5.754865646E0,6.239209495E0
7.705655635E0,2.913109303E0,3.367519379E-2,-6.127305984E0,6.784631048E0
7.710655635E0,3.159290314E0,-2.601599693E-2,-6.730074883E0,7.434762945E0
7.715655635E0,3.265835285E0,-2.054775953E-1,-7.009982586E0,7.736133208E0
7.720655635E0,3.264425278E0,-5.590660572E-1,-6.838549614E0,7.598341140E0
7.725655635E0,3.007788897E0,-1.038577080E0,-6.340808868E0,7.094455124E0
7.730655635E0,2.571423054E0,-1.651171923E0,-5.565911770E0,6.349642436E0
7.735655635E0,1.992362261E0,-2.197895527E0,-4.805132866E0,5.647083671E0
7.740655635E0,1.233317256E0,-2.684327841E0,-4.142131805E0,5.087626490E0
7.745655635E0,5.488839149E-1,-3.224245071E0,-3.806221008E0,5.018400960E0
7.750655635E0,-2.890467644E-3,-3.699702263E0,-3.555098057E0,5.130938256E0
7.755655635E0,-4.240282774E-1,-4.059902668E0,-3.275755882E0,5.233850041E0
7.760655635E0,-7.416391373E-1,-4.271892071E0,-2.958730698E0,5.249112098E0
7.765655635E0,-1.049885511E0,-4.229715347E0,-2.553695679E0,5.051149684E0
7.770655635E0,-1.229305506E0,-3.908699512E0,-1.970590591E0,4.546685736E0
7.775655635E0,-1.647275448E0,-3.386389971E0,-1.143778801E0,3.935655394E0
7.780655635E0,-1.524555564E0,-3.008472681E0,-2.729625702E-1,3.383738481E0
7.785655635E0,-1.276388288E0,-2.727317095E0,6.180324554E-1,3.073985965E0
7.790655635E0,-1.086323857E0,-2.533692598E0,1.337810516E0,3.064218446E0
7.795655635E0,-9.219977856E-1,-2.437119722E0,1.757050514E0,3.142747042E0
7.800655635E0,-1.020067215E0,-2.361820459E0,1.940452576E0,3.222435291E0
7.805655635E0,-1.146652222E0,-2.362470388E0,1.887518883E0,3.234007605E0
7.810655635E0,-1.109357715E0,-2.368491173E0,1.892208099E0,3.228138235E0
7.815655635E0,-9.508223534E-1,-2.312882423E0,2.003701210E0,3.204419884E0
7.820655635E0,-7.380081415E-1,-2.203331947E0,2.126543045E0,3.149843331E0
7.825655635E0,-6.748212576E-1,-2.042534828E0,2.175216675E0,3.059231903E0
7.830655635E0,-6.809235811E-1,-1.925865173E0,2.279331207E0,3.060713045E0
7.835655635E0,-6.864993572E-1,-1.872864485E0,2.243081093E0,3.001718763E0
7.840655635E0,-4.454258680E-1,-1.868297219E0,2.183890343E0,2.908318368E0
7.845655635E0,6.492459774E-2,-1.903633714E0,2.170381546E0,2.887662130E0
7.850655635E0,4.599779844E-1,-1.881909370E0,2.361169815E0,3.054224209E0
7.855655635E0,1.565746069E-1,-1.821664453E0,2.916380882E0,3.442129346E0
7.860655635E0,-2.059752345E-1,-1.833853006E0,3.446716309E0,3.909641410E0
7.865655635E0,-9.925149083E-1,-1.815714359E0,3.879845619E0,4.397170284E0
7.870655635E0,-1.721606255E0,-1.857688308E0,4.107322693E0,4.825456833E0
7.875655635E0,-2.227695942E0,-1.950496078E0,4.107838631E0,5.063734035E0
7.880655635E0,-2.520461559E0,-2.087352276E0,3.723481178E0,4.957224837E0
7.885655635E0,-2.658708096E0,-2.298490047E0,3.103888512E0,4.688913427E0
7.890655635E0,-2.704599857E0,-2.557352304E0,2.416232109E0,4.437689579E0
7.895655635E0,-2.673156261E0,-2.733665943E0,1.948240280E0,4.291192617E0
7.900655635E0,-2.540310144E0,-2.794411659E0,1.739536285E0,4.157871888E0
7.905655635E0,-2.337811470E0,-2.722937584E0,1.686584473E0,3.965390112E0
7.910655635E0,-1.927890897E0,-2.514753342E0,1.945346832E0,3.718214891E0
7.915655635E0,-1.352788210E0,-2.194319725E0,2.355889320E0,3.492175466E0
7.920655635E0,-7.255062461E-1,-1.830610037E0,2.828095436E0,3.446101597E0
7.925655635E0,-1.135381535E-1,-1.543616772E0,3.262830734E0,3.611330510E0
7.930655635E0,3.877224326E-1,-1.293989897E0,3.644780159E0,3.887050417E0
7.935655635E0,2.011478543E-1,-9.182469845E-1,4.168427467E0,4.273104906E0
7.940655635E0,-7.230289578E-1,-6.398375630E-1,4.707628250E0,4.805614084E0
7.945655635E0,-1.453563571E0,-7.749056816E-1,4.567042351E0,4.855018198E0
7.950655635E0,-1.676401615E0,-1.158497334E0,4.185941696E0,4.655593016E0
7.955655635E0,-1.890952468E0,-1.521765471E0,4.455020905E0,5.073330528E0
7.960655635E0,-1.627176523E0,-2.282412052E0,5.663088799E0,6.318835569E0
7.965655635E0,-8.984022737E-1,-3.254123926E0,7.064173698E0,7.829367740E0
7.970655635E0,-1.072565913E-1,-3.911824703E0,8.032732964E0,8.935249037E0
7.975655635E0,5.338257551E-2,-4.033539295E0,7.842111588E0,8.818786940E0
7.980655635E0,-2.003489733E-1,-3.762936592E0,6.959687233E0,7.914358969E0
7.985655635E0,-9.701557159E-1,-3.193619013E0,5.814991951E0,6.704814382E0
7.990655635E0,-1.990447879E0,-2.471209526E0,4.466181755E0,5.478643879E0
7.995655635E0,-2.423672676E0,-1.806293249E0,3.028772354E0,4.279059069E0
8.000655635E0,-2.341879845E0,-1.331218123E0,1.967739105E0,3.335946655E0
8.005655635E0,-2.021750212E0,-9.275913239E-1,1.583250999E0,2.730308281E0
8.010655635E0,-1.629811525E0,-5.450329781E-1,2.485449791E0,3.021722558E0
8.015655635E0,-1.365811586E0,-2.612619400E-1,5.922045708E0,6.083117988E0
8.020655635E0,-9.223562479E-1,-3.146412373E-1,1.002898598E1,1.007622449E1
8.025655635E0,-1.161562443E0,-3.624268770E-1,1.192427158E1,1.198619345E1
8.030655635E0,-1.315640450E0,-4.663578272E-1,1.010026836E1,1.019626502E1
8.035655635E0,-7.973227501E-1,-4.898363352E-1,5.932293892E0,6.005645180E0
8.040655635E0,-9.009227753E-1,-3.274916410E-1,2.150325775E0,2.354318067E0
8.045655635E0,-1.363274932E0,-2.480708361E-1,-3.346586227E-1,1.425501341E0
8.050655635E0,-1.825169444E0,-2.655864954E-1,-1.421608925E0,2.328680232E0
8.055655635E0,-2.203633070E0,-3.651163578E-1,-1.466781616E0,2.672219484E0
8.060655635E0,-2.402053595E0,-6.041111946E-1,-4.148540497E-1,2.511357340E0
8.065655635E0,-2.255630970E0,-1.127584457E0,1.803990364E0,3.100596558E0
8.070655635E0,-1.768858552E0,-1.848839998E0,3.685037613E0,4.486264830E0
8.075655635E0,-1.265553951E0,-2.423429012E0,2.930215836E0,4.007592772E0
8.080655635E0,-8.225595951E-1,-2.373920441E0,-1.740234375E0,3.056226141E0
8.085655635E0,-3.963420391E-1,-1.638188601E0,-7.476642609E0,7.664263409E0
8.090655635E0,-6.033546925E-1,-8.533462286E-1,-9.979093552E0,1.003367055E1
8.095655635E0,-1.337871313E0,-4.547807574E-1,-8.688729286E0,8.802882584E0
8.100655635E0,-1.901437283E0,-6.164302826E-1,-7.150105000E0,7.424247540E0
8.105655635E0,-1.815980315E0,-8.990668058E-1,-5.379898071E0,5.748861529E0
8.110655635E0,-1.659028769E0,-1.010539055E0,-4.838905334E0,5.214266053E0
8.115655635E0,-1.739185452E0,-1.052579761E0,-6.340307713E0,6.658242417E0
8.120655635E0,-1.734684229E0,-9.236872196E-1,-8.570460320E0,8.792901543E0
8.125655635E0,-1.607376575E0,-5.783529878E-1,-1.106531906E1,1.119640288E1
8.130655635E0,-1.418634772E0,-7.465136051E-2,-1.306240559E1,1.313942682E1
8.135655635E0,-1.181047440E0,2.317373753E-1,-1.300211525E1,1.305770180E1
8.140655635E0,-6.951422691E-1,1.704508066E-1,-9.934022903E0,9.959773456E0
8.145655635E0,3.997517824E-1,3.465855122E-2,-4.561789036E0,4.579401916E0
8.150655635E0,1.664574146E0,5.141440034E-2,-8.053131104E-1,1.849859382E0
8.155655635E0,2.797046661E0,2.008172274E-1,2.192899704E0,3.559860488E0
8.160655635E0,4.037099361E0,5.503943563E-1,7.210415840E0,8.281980548E0
8.165655635E0,6.968968391E0,5.509333014E-1,1.652032471E1,1.793853886E1
8.170655635E0,6.841274261E0,-1.491941452E0,2.275590134E1,2.380882123E1
8.175655635E0,2.406820297E0,-2.384463072E0,2.031934738E1,2.059986228E1
8.180655635E0,3.083523512E-1,-1.176926494E0,1.158154297E1,1.164527263E1
8.185655635E0,-2.500848770E-1,-2.990136147E-1,2.606622696E0,2.635608747E0
